Folder: NHPflex2025/figures/Figure 1/EIS data (part 2)

File: 1123 NHP wafer P1e5c.DTA
EXPLAIN
TAG	EISPOT
TITLE	LABEL	Potentiostatic EIS	Test &Identifier
DATE	LABEL	11/23/2025	Date
TIME	LABEL	9:33:31	Time
NOTES	NOTES	1	&Notes...

PSTAT	PSTAT	IFC1010-39067	Potentiostat
VDC	POTEN	0.00000E+000	T	DC &Voltage (V)
FREQINIT	QUANT	1.00000E+005	Initial Fre&q. (Hz)
FREQFINAL	QUANT	1.00000E+000	Final Fre&q. (Hz)
PTSPERDEC	QUANT	1.00000E+001	Points/&decade
VAC	QUANT	1.00000E+001	AC &Voltage (mV rms)
AREA	QUANT	2.00000E-001	&Area (cm^2)
CONDIT	TWOPARAM	F	1.50000E+001	0.00000E+000	Conditionin&g	Time(s)	E(V)
DELAY	TWOPARAM	F	1.00000E+002	0.00000E+000	Init. De&lay	Time(s)	Stab.(mV/s)
SPEED	SELECTOR	1	&Optimize for:
THD	SELECTOR	0	T&HD
DRIFTCOR	SELECTOR	0	&Drift Correction
ZGUESS	QUANT	1.00000E+006	E&stimated Z (ohms)
OCVCURVE	TABLE	39
	Pt	T	Vf	Vm	Ach	Over	Temp
	#	s	V vs. Ref.	V	V	bits	deg C
	0	0.258333	7.38304E-001	7.38304E-001	0.00000E+000	...........	1559.17
	1	0.516667	7.38030E-001	7.23965E-001	0.00000E+000	...........	1559.17
	2	0.775	7.36065E-001	6.95565E-001	0.00000E+000	...........	1559.17
	3	1.03333	7.26604E-001	5.13256E-001	0.00000E+000	...........	1559.17
	4	1.29167	6.98258E-001	5.12430E-001	0.00000E+000	...........	1559.17
	5	1.55	6.47391E-001	5.38622E-001	0.00000E+000	...........	1558.03
	6	1.80833	5.91381E-001	5.55746E-001	0.00000E+000	...........	1558.03
	7	2.06667	5.54052E-001	5.70015E-001	0.00000E+000	...........	1558.03
	8	2.325	5.43007E-001	5.81797E-001	0.00000E+000	...........	1558.03
	9	2.58333	5.49932E-001	5.90918E-001	0.00000E+000	...........	1558.03
	10	2.84167	5.63644E-001	5.99219E-001	0.00000E+000	...........	1558.03
	11	3.1	5.77319E-001	6.06132E-001	0.00000E+000	...........	1558.03
	12	3.35833	5.88655E-001	6.12132E-001	0.00000E+000	...........	1558.03
	13	3.61667	5.97673E-001	6.17176E-001	0.00000E+000	...........	1558.03
	14	3.875	6.04992E-001	6.21823E-001	0.00000E+000	...........	1558.03
	15	4.13333	6.11086E-001	6.23210E-001	0.00000E+000	...........	1558.03
	16	4.39167	6.16161E-001	6.28600E-001	0.00000E+000	...........	1558.03
	17	4.65	6.20415E-001	6.31841E-001	0.00000E+000	...........	1558.03
	18	4.90833	6.24225E-001	6.35741E-001	0.00000E+000	...........	1558.03
	19	5.16667	6.27944E-001	6.40003E-001	0.00000E+000	...........	1558.03
	20	5.425	6.31715E-001	6.43164E-001	0.00000E+000	...........	1557.85
	21	5.68333	6.35521E-001	6.46668E-001	0.00000E+000	...........	1557.65
	22	5.94167	6.39278E-001	6.50715E-001	0.00000E+000	...........	1557.65
	23	6.2	6.42952E-001	6.53838E-001	0.00000E+000	...........	1557.65
	24	6.45833	6.46558E-001	6.56857E-001	0.00000E+000	...........	1558.03
	25	6.71667	6.50058E-001	6.59640E-001	0.00000E+000	...........	1558.03
	26	6.975	6.53372E-001	6.62451E-001	0.00000E+000	...........	1558.03
	27	7.23333	6.56479E-001	6.65558E-001	0.00000E+000	...........	1558.03
	28	7.49167	6.59440E-001	6.68177E-001	0.00000E+000	...........	1558.03
	29	7.75	6.62327E-001	6.70891E-001	0.00000E+000	...........	1558.03
	30	8.00833	6.65157E-001	6.73257E-001	0.00000E+000	...........	1558.03
	31	8.26667	6.67907E-001	6.76087E-001	0.00000E+000	...........	1558.03
	32	8.525	6.70572E-001	6.78336E-001	0.00000E+000	...........	1558.03
	33	8.78333	6.73168E-001	6.80866E-001	0.00000E+000	...........	1558.03
	34	9.04167	6.75698E-001	6.82800E-001	0.00000E+000	...........	1558.03
	35	9.3	6.78143E-001	6.85403E-001	0.00000E+000	...........	1558.03
	36	9.5583	6.80499E-001	6.87216E-001	0.00000E+000	...........	1558.03
	37	9.8167	6.82768E-001	6.88925E-001	0.00000E+000	...........	1558.03
	38	10.075	6.84924E-001	6.90872E-001	0.00000E+000	...........	1558.03
EOC	QUANT	0.6849238	Open Circuit (V)
PSTATMODEL	IQUANT	64	Pstat Model
PSTATSECTION	LABEL	IFC1010-39067	Pstat Section
PSTATSERIALNO	LABEL	39067	Pstat Serial Number
CTRLMODE	IQUANT	1	Control Mode
ELECTROMETER	IQUANT	0	RE=0 or CS=1
IESTAB	IQUANT	0	I/E Stability
CASPEED	IQUANT	3	Control Amp Speed
CONVENTION	IQUANT	1	Current Convention
ICHRANGE	IQUANT	2	Ich Range
ICHRANGEMODE	TOGGLE	F	Ich Auto Range
ICHOFFSETENABLE	TOGGLE	T	Ich Offset Enable
ICHOFFSET	QUANT	0	Ich Offset (V)
ICHFILTER	IQUANT	4	Ich Filter
VCHRANGE	IQUANT	2	Vch Range
VCHRANGEMODE	TOGGLE	F	Vch Auto Range
VCHOFFSETENABLE	TOGGLE	T	Vch Offset Enable
VCHOFFSET	QUANT	0	Vch Offset (V)
VCHFILTER	IQUANT	4	Vch Filter
IERANGELOWERLIMIT	IQUANT	4	I/E Range Lower Limit
IERANGEMODE	TOGGLE	F	I/E AutoRange
IERANGE	IQUANT	6	I/E Range
ACHSELECT	IQUANT	0	Ach Select
ACHRANGE	IQUANT	2	Ach Range
ACHOFFSETENABLE	TOGGLE	F	Ach Offset Enable
ACHOFFSET	QUANT	0	Ach Offset (V)
ACHFILTER	IQUANT	1	Ach Filter
SENSECABLEID	IQUANT	14	Sense Cable ID
PWRCABLEID	IQUANT	14	Power Cable ID
DCCALDATE	LABEL	11/8/2025	DC Calibration Date
ACCALDATE	LABEL	5/30/2024	AC Calibration Date
FRAMEWORKVERSION	LABEL	7.10.3	Framework Version
INSTRUMENTVERSION	LABEL	4.91	Instrument Version
COMMVERSION	LABEL	3.10	Communications Version
CPUPLDVERSION	LABEL	2.50	CPU PLD Version
CTRLPLDVERSION	LABEL	0.00	CTRL PLD Version
PSTATPLDVERSION	LABEL	0.00	PSTAT PLD Version
ZCURVE	TABLE
	Pt	Time	Freq	Zreal	Zimag	Zsig	Zmod	Zphz	Idc	Vdc	IERange	Imod	Vmod	Temp
	#	s	Hz	ohm	ohm	V	ohm	°	A	V	#	A	V	°C
	0	0	100019.5	10966.13	-29969.46	1	31912.76	-69.90192	-1.907333E-008	0.6850837	8	3.113894E-007	0.0099925	1557.844
	1	2	79511.72	12840.08	-36064.13	1	38281.71	-70.4025	-2.694033E-008	0.6851196	8	2.676353E-007	0.0102874	1557.654
	2	4	63105.47	15046.2	-43327.13	1	45865.32	-70.84944	-1.974131E-008	0.6850812	8	2.209497E-007	0.0101631	1557.275
	3	5	50214.84	17690.21	-52515.34	1	55414.84	-71.38349	-2.688353E-008	0.6851197	8	1.809862E-007	0.0100492	1557.464
	4	7	39902.34	21168.13	-63198.88	1	66649.74	-71.482	-2.640099E-008	0.6851208	8	1.506737E-007	0.0100559	1557.844
	5	9	31699.22	25186.85	-76338.08	1	80385.82	-71.7403	-1.855981E-008	0.6850821	8	1.244562E-007	0.0100135	1557.37
	6	11	25136.72	38056.11	-92055.77	1	99611.9	-67.53966	-3.993584E-009	0.6850926	7	9.793319E-008	0.0100484	1557.939
	7	13	19980.47	44057.77	-110405	1	118871.1	-68.24523	-4.435159E-009	0.6850924	7	8.254597E-008	0.0100045	1557.275
	8	14	15878.91	53378	-131901.4	1	142292.7	-67.96776	-4.136529E-009	0.685095	7	6.937765E-008	0.0099988	1557.37
	9	16	12597.66	60441.14	-160304.6	1	171320.4	-69.34158	-8.608441E-010	0.6851133	7	5.78264E-008	0.0099909	1557.844
	10	18	10019.53	70659.97	-191356.4	1	203985.5	-69.7329	-6.49399E-010	0.6851147	7	4.867568E-008	0.0099853	1557.37
	11	20	7928.241	85341.63	-230336.1	1	245637.8	-69.66987	-1.258273E-010	0.6852422	7	4.061748E-008	0.0100146	1557.275
	12	21	6307.871	94438.23	-278980.8	1	294531.6	-71.29845	-9.637714E-010	0.6852428	7	3.379791E-008	0.0099795	1557.18
	13	23	5034.722	121852.1	-330343.3	1	352100.3	-69.75274	-1.935893E-009	0.6851783	7	2.749541E-008	0.0096891	1557.844
	14	25	3993.056	146607.4	-396606.2	1	422835.9	-69.71292	-1.928748E-009	0.6851763	7	2.406085E-008	0.0101777	1557.275
	15	26	3144.055	176199.9	-476062.4	1	507623.7	-69.68951	-1.971239E-009	0.6851192	7	1.983818E-008	0.0100722	1557.275
	16	28	2519.531	262659.7	-561842.1	1	620207	-64.94404	-3.472797E-010	0.6851193	6	1.570227E-008	0.010049	1557.844
	17	30	2000.762	299713.4	-667177.6	1	731405.6	-65.80915	-3.765269E-010	0.6851211	6	1.338744E-008	0.0099971	1557.18
	18	31	1580.669	347115.8	-798800.2	1	870959.9	-66.51281	4.754954E-010	0.6851211	6	1.13246E-008	0.0100008	1557.654
	19	33	1253.634	401177.8	-953490	1	1034450	-67.18122	-2.367748E-010	0.6851209	6	9.576654E-009	0.0100013	1557.275
[...]
	21	36	790.0281	560692.6	-1355808	1	1467171	-67.53252	-2.115702E-010	0.6851785	6	6.781268E-009	0.0099992	1557.749
	22	38	628.811	644958.1	-1625605	1	1748875	-68.35931	-3.075173E-010	0.6851197	6	5.693851E-009	0.0099963	1557.086
	23	39	502.2321	746070.8	-1949214	1	2087117	-69.05542	-2.958841E-010	0.6851217	6	4.587689E-009	0.0096499	1557.749
	24	41	400.1524	878754.3	-2310597	1	2472058	-69.17745	-1.336809E-010	0.6851193	6	4.106229E-009	0.0102053	1557.464
	25	43	315.5048	1019745	-2775989	1	2957363	-69.82946	-1.510656E-010	0.6851211	6	3.396661E-009	0.0100825	1557.37
	26	44	252.0161	1517388	-3307724	1	3639163	-65.35715	-1.267078E-010	0.6851269	5	2.641858E-009	0.0100495	1557.939
	27	46	200.3205	1675906	-4006596	1	4342980	-67.30109	1.844556E-011	0.6851262	5	2.2268E-009	0.0099839	1557.275
	28	47	158.0056	1684307	-4825829	1	5111312	-70.76003	3.559132E-013	0.6851269	5	1.909313E-009	0.009981	1557.749
	29	49	125.558	2400679	-5634453	1	6124567	-66.92253	-6.353308E-010	0.6851223	5	1.590513E-009	0.0098962	1557.844
	30	50	99.734	2865441	-6887799	1	7460062	-67.41187	-5.125829E-011	0.6851256	5	1.301752E-009	0.0098171	1557.18
	31	52	79.44915	3456887	-8276148	1	8969096	-67.33006	1.286808E-010	0.6851346	5	1.136565E-009	0.010269	1557.844
	32	54	62.91946	431345.4	-4166110	1	4188380	-84.08884	2.035764E-011	0.6851421	5	2.376552E-009	0.0100019	1557.37
	33	55	49.86702	-1032917	-1.523174E+007	1	1.526672E+007	-93.87949	-5.971076E-011	0.6851363	5	6.531877E-010	0.0100032	1557.844
	34	57	40.0641	4757635	-1.455729E+007	1	1.531502E+007	-71.9015	1.419052E-012	0.6851402	5	6.515665E-010	0.0099993	1557.464
	35	59	31.6723	6340116	-1.681786E+007	1	1.797325E+007	-69.34421	-2.17933E-011	0.6851372	5	5.556737E-010	0.0100003	1557.464
	36	61	24.93351	1.280913E+007	-2.128834E+007	1	2.484486E+007	-58.9648	-9.879934E-011	0.6851359	4	3.873664E-010	0.0099998	1557.464
	37	63	20.03205	1.400893E+007	-2.451148E+007	1	2.823231E+007	-60.25094	-4.627571E-011	0.6851416	4	3.453689E-010	0.0099996	1557.37
	38	65	15.78283	1.414108E+007	-3.213169E+007	1	3.510578E+007	-66.24581	-8.382109E-012	0.6851425	4	2.803694E-010	0.0100002	1557.18
	39	67	12.46675	1.549564E+007	-3.889226E+007	1	4.186553E+007	-68.27644	-2.629674E-011	0.6851371	4	2.364753E-010	0.0099997	1557.18
	40	69	9.9734	1.548032E+007	-4.364288E+007	1	4.630704E+007	-70.47018	3.228245E-011	0.6851364	4	2.145799E-010	0.0100008	1557.18
	41	72	7.878151	2.276982E+007	-4.924143E+007	1	5.425111E+007	-65.18362	1.116802E-010	0.6851409	4	1.835709E-010	0.0099992	1557.654
	42	75	6.351626	1.956835E+007	-6.056738E+007	1	6.365005E+007	-72.09518	-4.561267E-012	0.6851378	4	1.566992E-010	0.0100002	1557.18
	43	78	5.013369	3.07988E+007	-8.039137E+007	1	8.608913E+007	-69.03763	-1.758847E-011	0.6851421	4	1.159697E-010	0.0100001	1557.18
	44	82	3.985969	3.464152E+007	-9.425825E+007	1	1.004224E+008	-69.82076	-1.527576E-011	0.6851363	4	9.947138E-011	0.0099995	1557.18
	45	86	3.175813	1.98119E+007	5.332949E+007	1	5.689064E+007	69.61997	1.769793E-010	0.6851377	4	1.756588E-010	0.0099999	1557.18
	46	92	2.516103	5.216515E+007	-1.317393E+008	1	1.416914E+008	-68.3978	1.619334E-011	0.6851479	4	6.858464E-011	0.0096079	1557.749
	47	97	1.99553	5.595077E+007	-1.561946E+008	1	1.659133E+008	-70.29187	-3.11964E-011	0.685147	4	6.205388E-011	0.0102213	1557.844
	48	104	1.583615	6.84622E+007	-1.906679E+008	1	2.025866E+008	-70.24856	-1.811139E-011	0.6851368	4	5.005513E-011	0.0100945	1557.844
	49	115	1.258052	8.284368E+007	-2.288406E+008	1	2.433744E+008	-70.099	-1.940677E-011	0.6851467	4	4.137812E-011	0.0100417	1557.464
	50	121	0.997765	1.005214E+008	-2.746099E+008	1	2.924297E+008	-69.89477	-1.903252E-011	0.6851457	4	3.432523E-011	0.0100198	1557.464

File: 1123 NHP wafer P1e16a.DTA
EXPLAIN
TAG	EISPOT
TITLE	LABEL	Potentiostatic EIS	Test &Identifier
DATE	LABEL	11/23/2025	Date
TIME	LABEL	10:17:58	Time
NOTES	NOTES	1	&Notes...

PSTAT	PSTAT	IFC1010-39067	Potentiostat
VDC	POTEN	0.00000E+000	T	DC &Voltage (V)
FREQINIT	QUANT	1.00000E+005	Initial Fre&q. (Hz)
FREQFINAL	QUANT	1.00000E+000	Final Fre&q. (Hz)
PTSPERDEC	QUANT	1.00000E+001	Points/&decade
VAC	QUANT	1.00000E+001	AC &Voltage (mV rms)
AREA	QUANT	2.00000E-001	&Area (cm^2)
CONDIT	TWOPARAM	F	1.50000E+001	0.00000E+000	Conditionin&g	Time(s)	E(V)
DELAY	TWOPARAM	F	1.00000E+002	0.00000E+000	Init. De&lay	Time(s)	Stab.(mV/s)
SPEED	SELECTOR	1	&Optimize for:
THD	SELECTOR	0	T&HD
DRIFTCOR	SELECTOR	0	&Drift Correction
ZGUESS	QUANT	1.00000E+006	E&stimated Z (ohms)
OCVCURVE	TABLE	39
	Pt	T	Vf	Vm	Ach	Over	Temp
	#	s	V vs. Ref.	V	V	bits	deg C
	0	0.258333	7.32845E-001	7.32845E-001	0.00000E+000	...........	1559.46
	1	0.516667	7.32697E-001	7.25118E-001	0.00000E+000	...........	1559.46
	2	0.775	7.31854E-001	7.21128E-001	0.00000E+000	...........	1559.46
	3	1.03333	7.29853E-001	7.26230E-001	0.00000E+000	...........	1557.96
	4	1.29167	7.27284E-001	7.23722E-001	0.00000E+000	...........	1557.84
	5	1.55	7.25017E-001	7.07649E-001	0.00000E+000	...........	1557.84
	6	1.80833	7.22402E-001	7.04929E-001	0.00000E+000	...........	1557.84
	7	2.06667	7.18385E-001	7.14205E-001	0.00000E+000	...........	1558.22
	8	2.325	7.14019E-001	7.11008E-001	0.00000E+000	...........	1558.22
	9	2.58333	7.12340E-001	7.64013E-001	0.00000E+000	...........	1558.22
	10	2.84167	7.17564E-001	7.99904E-001	0.00000E+000	...........	1558.22
	11	3.1	7.31688E-001	7.33584E-001	0.00000E+000	...........	1558.22
	12	3.35833	7.47716E-001	7.21233E-001	0.00000E+000	...........	1558.22
	13	3.61667	7.54113E-001	7.39121E-001	0.00000E+000	...........	1558.22
	14	3.875	7.49785E-001	7.68465E-001	0.00000E+000	...........	1558.22
	15	4.13333	7.45238E-001	7.77804E-001	0.00000E+000	...........	1558.22
	16	4.39167	7.47859E-001	7.37165E-001	0.00000E+000	...........	1558.22
	17	4.65	7.53374E-001	7.25567E-001	0.00000E+000	...........	1558.22
	18	4.90833	7.53446E-001	7.35610E-001	0.00000E+000	...........	1558.22
	19	5.16667	7.47083E-001	7.39768E-001	0.00000E+000	...........	1558.22
	20	5.425	7.40209E-001	7.41508E-001	0.00000E+000	...........	1558.22
	21	5.68333	7.37221E-001	7.41645E-001	0.00000E+000	...........	1558.22
	22	5.94167	7.37725E-001	7.40928E-001	0.00000E+000	...........	1558.22
	23	6.2	7.39386E-001	7.41698E-001	0.00000E+000	...........	1558.22
	24	6.45833	7.40682E-001	7.41794E-001	0.00000E+000	...........	1558.22
	25	6.71667	7.41331E-001	7.41319E-001	0.00000E+000	...........	1558.22
	26	6.975	7.41563E-001	7.41390E-001	0.00000E+000	...........	1558.22
	27	7.23333	7.41584E-001	7.41482E-001	0.00000E+000	...........	1558.22
	28	7.49167	7.41524E-001	7.41432E-001	0.00000E+000	...........	1558.22
	29	7.75	7.41445E-001	7.40203E-001	0.00000E+000	...........	1558.22
	30	8.00833	7.41346E-001	7.42786E-001	0.00000E+000	...........	1558.18
	31	8.26667	7.41319E-001	7.42530E-001	0.00000E+000	...........	1558.13
	32	8.525	7.41532E-001	7.43184E-001	0.00000E+000	...........	1558.13
	33	8.78333	7.42052E-001	7.46793E-001	0.00000E+000	...........	1558.13
	34	9.04167	7.42841E-001	7.43156E-001	0.00000E+000	...........	1558.13
	35	9.3	7.43623E-001	7.41160E-001	0.00000E+000	...........	1558.13
	36	9.5583	7.43953E-001	7.46713E-001	0.00000E+000	...........	1558.13
	37	9.8167	7.44015E-001	7.50122E-001	0.00000E+000	...........	1558.13
	38	10.075	7.44665E-001	7.49851E-001	0.00000E+000	...........	1558.22
EOC	QUANT	0.7446648	Open Circuit (V)
PSTATMODEL	IQUANT	64	Pstat Model
PSTATSECTION	LABEL	IFC1010-39067	Pstat Section
PSTATSERIALNO	LABEL	39067	Pstat Serial Number
CTRLMODE	IQUANT	1	Control Mode
ELECTROMETER	IQUANT	0	RE=0 or CS=1
IESTAB	IQUANT	0	I/E Stability
CASPEED	IQUANT	3	Control Amp Speed
CONVENTION	IQUANT	1	Current Convention
ICHRANGE	IQUANT	2	Ich Range
ICHRANGEMODE	TOGGLE	F	Ich Auto Range
ICHOFFSETENABLE	TOGGLE	T	Ich Offset Enable
ICHOFFSET	QUANT	0	Ich Offset (V)
ICHFILTER	IQUANT	4	Ich Filter
VCHRANGE	IQUANT	2	Vch Range
VCHRANGEMODE	TOGGLE	F	Vch Auto Range
VCHOFFSETENABLE	TOGGLE	T	Vch Offset Enable
VCHOFFSET	QUANT	0	Vch Offset (V)
VCHFILTER	IQUANT	4	Vch Filter
IERANGELOWERLIMIT	IQUANT	4	I/E Range Lower Limit
IERANGEMODE	TOGGLE	F	I/E AutoRange
IERANGE	IQUANT	6	I/E Range
ACHSELECT	IQUANT	0	Ach Select
ACHRANGE	IQUANT	2	Ach Range
ACHOFFSETENABLE	TOGGLE	F	Ach Offset Enable
ACHOFFSET	QUANT	0	Ach Offset (V)
ACHFILTER	IQUANT	1	Ach Filter
SENSECABLEID	IQUANT	14	Sense Cable ID
PWRCABLEID	IQUANT	14	Power Cable ID
DCCALDATE	LABEL	11/8/2025	DC Calibration Date
ACCALDATE	LABEL	5/30/2024	AC Calibration Date
FRAMEWORKVERSION	LABEL	7.10.3	Framework Version
INSTRUMENTVERSION	LABEL	4.91	Instrument Version
COMMVERSION	LABEL	3.10	Communications Version
CPUPLDVERSION	LABEL	2.50	CPU PLD Version
CTRLPLDVERSION	LABEL	0.00	CTRL PLD Version
PSTATPLDVERSION	LABEL	0.00	PSTAT PLD Version
ZCURVE	TABLE
	Pt	Time	Freq	Zreal	Zimag	Zsig	Zmod	Zphz	Idc	Vdc	IERange	Imod	Vmod	Temp
	#	s	Hz	ohm	ohm	V	ohm	°	A	V	#	A	V	°C
	0	1	100019.5	10993.49	-28193.94	1	30261.45	-68.69799	-1.541349E-008	0.7447857	8	3.286956E-007	0.0100021	1557.749
	1	2	79511.72	12782.52	-33890.67	1	36221.13	-69.33507	-1.401947E-008	0.7447822	8	2.822112E-007	0.0102637	1558.033
	2	4	63105.47	14974.02	-40748.46	1	43412.65	-69.8229	-2.22296E-008	0.7448218	8	2.335102E-007	0.0101665	1557.939
	3	6	50214.84	17861.59	-49190.46	1	52332.95	-70.04349	-2.09011E-008	0.7448216	8	1.917274E-007	0.0100536	1557.464
	4	7	39902.34	21264.97	-59182.12	1	62886.58	-70.23592	-2.007524E-008	0.7448197	8	1.597139E-007	0.0100574	1558.129
	5	9	31699.22	25246.31	-71239.73	1	75580.91	-70.48642	-2.113283E-008	0.7448227	8	1.323934E-007	0.0100154	1557.464
	6	10	25136.72	37282.97	-85132.69	1	92938.66	-66.34949	-2.942379E-009	0.7447959	7	1.050104E-007	0.0100527	1557.939
	7	12	19980.47	43243.91	-102106.8	1	110886.6	-67.04655	-7.543893E-010	0.7448156	7	8.852656E-008	0.0100086	1557.56
	8	14	15878.91	49933.5	-122333.4	1	132131.8	-67.79592	-2.868138E-009	0.7447962	7	7.449172E-008	0.0099692	1557.37
	9	15	12597.66	59223.59	-146743.1	1	158243.4	-68.02164	-8.224551E-010	0.7448152	7	6.25989E-008	0.0099899	1558.033
	10	17	10019.53	68296.16	-175097.2	1	187945.2	-68.69187	-2.997588E-009	0.7447962	7	5.300183E-008	0.0100178	1557.464
	11	18	7928.241	82265.6	-212215.3	1	227602.7	-68.8111	-1.005965E-009	0.7449404	7	4.368873E-008	0.009981	1558.033
	12	20	6307.871	99632.4	-251032.5	1	270081.4	-68.35236	-3.369591E-010	0.7449414	7	3.696931E-008	0.0100098	1558.129
	13	22	5034.722	116878.3	-299616.2	1	321606	-68.68958	-1.460467E-009	0.7448793	7	3.001023E-008	0.0096594	1557.464
	14	23	3993.056	139689.4	-357954.9	1	384245.8	-68.68214	-1.474367E-009	0.7448802	7	2.655722E-008	0.0102084	1558.033
	15	25	3144.055	168613.1	-429959.3	1	461839.1	-68.58684	-1.72533E-009	0.7448206	7	2.18039E-008	0.0100718	1557.37
	16	26	2519.531	244407.6	-504733.5	1	560794.9	-64.1623	-2.168737E-010	0.7448227	6	1.736609E-008	0.0100492	1558.033
	17	28	2000.762	281639.7	-599449.9	1	662314.9	-64.83443	-2.126576E-010	0.7448214	6	1.478326E-008	0.0099967	1557.275
	18	29	1580.669	326724.1	-715756.2	1	786800.9	-65.46453	-2.237643E-010	0.7448233	6	1.253573E-008	0.0100006	1557.844
	19	31	1253.634	379731	-852784.5	1	933507.9	-65.99737	-1.790976E-010	0.7448223	6	1.061165E-008	0.0100008	1557.275
[...]
	21	34	790.0281	515993.6	-1213342	1	1318502	-66.96157	-1.785653E-010	0.7448839	6	7.546019E-009	0.0099993	1557.275
	22	35	628.811	603931.3	-1443841	1	1565059	-67.30137	-2.200093E-010	0.744823	6	6.362876E-009	0.0099967	1557.844
	23	37	502.2321	703008.6	-1713455	1	1852066	-67.69229	-2.530993E-010	0.7448238	6	5.154246E-009	0.0096207	1557.56
	24	38	400.1524	824035.4	-2039719	1	2199884	-68.00156	-2.60105E-010	0.7448224	6	4.627907E-009	0.0102355	1558.033
	25	40	315.5048	972519	-2449851	1	2635823	-68.34837	-2.209223E-010	0.7448212	6	3.810756E-009	0.0100818	1558.033
	26	41	252.0161	1389538	-2891342	1	3207908	-64.33171	-4.01172E-011	0.7448272	5	2.987379E-009	0.0100171	1557.939
	27	43	200.3205	1575886	-3445631	1	3788903	-65.42265	-3.438873E-011	0.7448286	5	2.560174E-009	0.0100142	1557.939
	28	44	158.0056	1805785	-4149051	1	4524984	-66.47996	-1.932338E-011	0.744828	5	2.149823E-009	0.0099491	1557.844
	29	46	125.558	2131634	-4962714	1	5401148	-66.75503	-4.272727E-012	0.7448233	5	1.808877E-009	0.0099255	1557.844
	30	48	99.734	2509546	-5836194	1	6352872	-66.73244	-4.249172E-011	0.7448289	5	1.528462E-009	0.009816	1557.37
	31	49	79.44915	2920132	-7159499	1	7732115	-67.81101	-2.836591E-011	0.7448398	5	1.317863E-009	0.0102648	1557.939
	32	51	62.91946	-614270.4	-7329017	1	7354714	-94.79096	-6.297779E-011	0.7448445	5	1.353364E-009	0.0100016	1557.464
	33	52	49.86702	2778746	-9109286	1	9.523682E+006	-73.03591	3.309453E-012	0.7448411	5	1.047049E-009	0.0100029	1557.939
	34	54	40.0641	4548714	-1.216116E+007	1	1.298401E+007	-69.49239	-2.819486E-011	0.7448449	5	7.685589E-010	0.0099995	1557.56
	35	56	31.6723	5051167	-1.449384E+007	1	1.53488E+007	-70.78633	-2.230001E-011	0.7448402	5	6.506643E-010	0.0099999	1557.464
	36	57	24.93351	7564525	-1.798058E+007	1	1.9507E+007	-67.18325	-4.555721E-011	0.7448413	5	5.122157E-010	0.0099999	1557.464
	37	59	20.03205	9361675	-2.107128E+007	1	2.305731E+007	-66.04509	-1.332542E-011	0.7448456	4	4.22869E-010	0.0099992	1557.37
	38	61	15.78283	1.100728E+007	-2.561862E+007	1	2.788322E+007	-66.74878	-1.709264E-011	0.7448452	4	3.529959E-010	0.0100003	1557.37
	39	64	12.46675	1.548762E+007	-2.787984E+007	1	3.189282E+007	-60.94724	-2.70746E-010	0.7448406	4	3.104256E-010	0.0099999	1557.37
	40	66	9.9734	1.494124E+007	-3.621386E+007	1	3.917504E+007	-67.57977	-4.911753E-012	0.7448403	4	2.536426E-010	0.0100007	1557.37
	41	69	7.878151	1.637279E+007	-4.250034E+007	1	4.5545E+007	-68.93137	-4.4658E-012	0.7448459	4	2.18661E-010	0.0099992	1557.37
	42	72	6.351626	2.131036E+007	-5.21136E+007	1	5.630238E+007	-67.75931	-1.285091E-011	0.7448413	4	1.771378E-010	0.0099995	1557.37
	43	75	5.013369	2.444021E+007	-6.204426E+007	1	6.668443E+007	-68.49974	-1.06849E-011	0.7448471	4	1.497316E-010	0.0100012	1557.37
	44	78	3.985969	2.930574E+007	-7.513703E+007	1	8.064986E+007	-68.6927	-1.266437E-011	0.7448412	4	1.238517E-010	0.009999	1557.37
	45	82	3.175813	3.460304E+007	-8.942942E+007	1	9.589051E+007	-68.84698	-1.114578E-011	0.7448393	4	1.042203E-010	0.0100003	1557.37
	46	88	2.516103	4.082888E+007	-1.066705E+008	1	1.142173E+008	-69.0553	-1.092155E-011	0.7448517	4	8.506383E-011	0.0096059	1558.033
	47	92	1.99553	4.86976E+007	-1.2773E+008	1	1.366983E+008	-69.13044	-1.057003E-011	0.7448516	4	7.53193E-011	0.0102218	1557.464
	48	98	1.583615	5.822497E+007	-1.527943E+008	1	1.635122E+008	-69.13977	-1.101677E-011	0.7448423	4	6.202052E-011	0.0100951	1557.464
	49	105	1.258052	6.842849E+007	-1.863027E+008	1	1.98472E+008	-69.83185	-1.010096E-011	0.7448511	4	5.07418E-011	0.0100421	1558.033
	50	110	0.997765	8.383481E+007	-2.20066E+008	1	2.354937E+008	-69.14551	-1.00961E-011	0.7448515	4	4.262373E-011	0.0100197	1558.129