Folder: NHPflex2025/figures/Figure 1/EIS data (part 12)

File: 1123 NHP wafer P1e24b.DTA
EXPLAIN
TAG	EISPOT
TITLE	LABEL	Potentiostatic EIS	Test &Identifier
DATE	LABEL	11/23/2025	Date
TIME	LABEL	11:18:31	Time
NOTES	NOTES	1	&Notes...

PSTAT	PSTAT	IFC1010-39067	Potentiostat
VDC	POTEN	0.00000E+000	T	DC &Voltage (V)
FREQINIT	QUANT	1.00000E+005	Initial Fre&q. (Hz)
FREQFINAL	QUANT	1.00000E+000	Final Fre&q. (Hz)
PTSPERDEC	QUANT	1.00000E+001	Points/&decade
VAC	QUANT	1.00000E+001	AC &Voltage (mV rms)
AREA	QUANT	2.00000E-001	&Area (cm^2)
CONDIT	TWOPARAM	F	1.50000E+001	0.00000E+000	Conditionin&g	Time(s)	E(V)
DELAY	TWOPARAM	F	1.00000E+002	0.00000E+000	Init. De&lay	Time(s)	Stab.(mV/s)
SPEED	SELECTOR	1	&Optimize for:
THD	SELECTOR	0	T&HD
DRIFTCOR	SELECTOR	0	&Drift Correction
ZGUESS	QUANT	1.00000E+006	E&stimated Z (ohms)
OCVCURVE	TABLE	39
	Pt	T	Vf	Vm	Ach	Over	Temp
	#	s	V vs. Ref.	V	V	bits	deg C
	0	0.258333	7.72231E-001	7.72231E-001	0.00000E+000	...........	1559.55
	1	0.516667	7.72234E-001	7.72391E-001	0.00000E+000	...........	1559.55
	2	0.775	7.72252E-001	7.72512E-001	0.00000E+000	...........	1559.55
	3	1.03333	7.72318E-001	7.73481E-001	0.00000E+000	...........	1559.55
	4	1.29167	7.72504E-001	7.74466E-001	0.00000E+000	...........	1558.22
	5	1.55	7.72885E-001	7.74492E-001	0.00000E+000	...........	1558.22
	6	1.80833	7.73429E-001	7.74886E-001	0.00000E+000	...........	1558.22
	7	2.06667	7.73988E-001	7.75032E-001	0.00000E+000	...........	1558.22
	8	2.325	7.74451E-001	7.75549E-001	0.00000E+000	...........	1558.32
	9	2.58333	7.74816E-001	7.75763E-001	0.00000E+000	...........	1558.32
	10	2.84167	7.75136E-001	7.76002E-001	0.00000E+000	...........	1558.32
	11	3.1	7.75436E-001	7.76179E-001	0.00000E+000	...........	1558.32
	12	3.35833	7.75714E-001	7.76549E-001	0.00000E+000	...........	1558.32
	13	3.61667	7.75972E-001	7.76721E-001	0.00000E+000	...........	1558.32
	14	3.875	7.76223E-001	7.76975E-001	0.00000E+000	...........	1558.32
	15	4.13333	7.76469E-001	7.77090E-001	0.00000E+000	...........	1558.32
	16	4.39167	7.76703E-001	7.77420E-001	0.00000E+000	...........	1558.32
	17	4.65	7.76926E-001	7.77713E-001	0.00000E+000	...........	1558.32
	18	4.90833	7.77158E-001	7.78047E-001	0.00000E+000	...........	1558.32
	19	5.16667	7.77415E-001	7.78220E-001	0.00000E+000	...........	1558.32
	20	5.425	7.77690E-001	7.78565E-001	0.00000E+000	...........	1558.32
	21	5.68333	7.77972E-001	7.78927E-001	0.00000E+000	...........	1558.32
	22	5.94167	7.78262E-001	7.79332E-001	0.00000E+000	...........	1558.32
	23	6.2	7.78573E-001	7.79494E-001	0.00000E+000	...........	1558.32
	24	6.45833	7.78896E-001	7.79745E-001	0.00000E+000	...........	1558.32
	25	6.71667	7.79208E-001	7.80249E-001	0.00000E+000	...........	1558.32
	26	6.975	7.79531E-001	7.81599E-001	0.00000E+000	...........	1558.32
	27	7.23333	7.79933E-001	7.80911E-001	0.00000E+000	...........	1558.08
	28	7.49167	7.80389E-001	7.80589E-001	0.00000E+000	...........	1557.84
	29	7.75	7.80716E-001	7.79895E-001	0.00000E+000	...........	1557.84
	30	8.00833	7.80767E-001	7.80466E-001	0.00000E+000	...........	1557.84
	31	8.26667	7.80619E-001	7.80852E-001	0.00000E+000	...........	1558.22
	32	8.525	7.80499E-001	7.81114E-001	0.00000E+000	...........	1558.22
	33	8.78333	7.80555E-001	7.81485E-001	0.00000E+000	...........	1558.22
	34	9.04167	7.80779E-001	7.81793E-001	0.00000E+000	...........	1558.22
	35	9.3	7.81088E-001	7.82061E-001	0.00000E+000	...........	1558.22
	36	9.5583	7.81416E-001	7.82149E-001	0.00000E+000	...........	1558.22
	37	9.8167	7.81718E-001	7.82587E-001	0.00000E+000	...........	1558.22
	38	10.075	7.81989E-001	7.82823E-001	0.00000E+000	...........	1558.22
EOC	QUANT	0.7819893	Open Circuit (V)
PSTATMODEL	IQUANT	64	Pstat Model
PSTATSECTION	LABEL	IFC1010-39067	Pstat Section
PSTATSERIALNO	LABEL	39067	Pstat Serial Number
CTRLMODE	IQUANT	1	Control Mode
ELECTROMETER	IQUANT	0	RE=0 or CS=1
IESTAB	IQUANT	0	I/E Stability
CASPEED	IQUANT	3	Control Amp Speed
CONVENTION	IQUANT	1	Current Convention
ICHRANGE	IQUANT	2	Ich Range
ICHRANGEMODE	TOGGLE	F	Ich Auto Range
ICHOFFSETENABLE	TOGGLE	T	Ich Offset Enable
ICHOFFSET	QUANT	0	Ich Offset (V)
ICHFILTER	IQUANT	4	Ich Filter
VCHRANGE	IQUANT	2	Vch Range
VCHRANGEMODE	TOGGLE	F	Vch Auto Range
VCHOFFSETENABLE	TOGGLE	T	Vch Offset Enable
VCHOFFSET	QUANT	0	Vch Offset (V)
VCHFILTER	IQUANT	4	Vch Filter
IERANGELOWERLIMIT	IQUANT	4	I/E Range Lower Limit
IERANGEMODE	TOGGLE	F	I/E AutoRange
IERANGE	IQUANT	6	I/E Range
ACHSELECT	IQUANT	0	Ach Select
ACHRANGE	IQUANT	2	Ach Range
ACHOFFSETENABLE	TOGGLE	F	Ach Offset Enable
ACHOFFSET	QUANT	0	Ach Offset (V)
ACHFILTER	IQUANT	1	Ach Filter
SENSECABLEID	IQUANT	14	Sense Cable ID
PWRCABLEID	IQUANT	14	Power Cable ID
DCCALDATE	LABEL	11/8/2025	DC Calibration Date
ACCALDATE	LABEL	5/30/2024	AC Calibration Date
FRAMEWORKVERSION	LABEL	7.10.3	Framework Version
INSTRUMENTVERSION	LABEL	4.91	Instrument Version
COMMVERSION	LABEL	3.10	Communications Version
CPUPLDVERSION	LABEL	2.50	CPU PLD Version
CTRLPLDVERSION	LABEL	0.00	CTRL PLD Version
PSTATPLDVERSION	LABEL	0.00	PSTAT PLD Version
ZCURVE	TABLE
	Pt	Time	Freq	Zreal	Zimag	Zsig	Zmod	Zphz	Idc	Vdc	IERange	Imod	Vmod	Temp
	#	s	Hz	ohm	ohm	V	ohm	°	A	V	#	A	V	°C
	0	1	100019.5	10766.85	-25487.67	1	27668.51	-67.09917	-1.051201E-008	0.7820014	8	3.586179E-007	0.0099776	1558.129
	1	3	79511.72	12462.7	-30480.15	1	32929.6	-67.76138	-1.096789E-008	0.7819979	8	3.109017E-007	0.0102796	1558.129
	2	5	63105.47	14316.16	-36629.44	1	39327.71	-68.65257	-1.865508E-008	0.7820346	8	2.570073E-007	0.0101366	1558.129
	3	7	50214.84	16839.55	-43987.99	1	47101.1	-69.05208	-1.804754E-008	0.7820339	8	2.134283E-007	0.0100727	1557.749
	4	9	39902.34	20071.67	-52716.31	1	56408.17	-69.15573	-1.028815E-008	0.781997	8	1.771919E-007	0.0100085	1557.56
	5	11	31699.22	23591.5	-63043.66	1	67313.16	-69.4837	-9.818858E-009	0.7819977	8	1.487841E-007	0.0100241	1557.486
	6	13	25136.72	34497.62	-75453.53	1	82965.78	-65.42995	-4.161573E-010	0.7820277	7	1.177425E-007	0.010062	1557.844
	7	15	19980.47	39852.51	-90608.93	1	98985.9	-66.25867	-3.377162E-009	0.7820128	7	9.895842E-008	0.0099873	1557.37
	8	17	15878.91	46082.94	-107906.6	1	117334.9	-66.87446	-3.124878E-009	0.7820124	7	8.418646E-008	0.010005	1557.844
	9	18	12597.66	53969.5	-129491.4	1	140288	-67.37457	-1.372991E-010	0.7820262	7	7.041942E-008	0.0099628	1558.033
	10	20	10019.53	63329.56	-155251.3	1	167671.1	-67.80865	-2.748229E-010	0.7820272	7	5.943087E-008	0.0100213	1558.033
	11	22	7928.241	74278.34	-186515.4	1	200761.7	-68.28545	-4.713026E-010	0.7821537	7	4.954977E-008	0.009985	1558.129
	12	24	6307.871	88268.99	-222381.8	1	239259.4	-68.35061	-2.748672E-010	0.7821567	7	4.160709E-008	0.0099798	1558.129
	13	26	5034.722	105994	-264729.7	1	285160.5	-68.17954	-1.083567E-009	0.7820956	7	3.395504E-008	0.0096906	1557.654
	14	28	3993.056	127059	-315922.4	1	340515.7	-68.09079	-1.136224E-009	0.7820959	7	2.987919E-008	0.0101782	1557.37
	15	29	3144.055	152764.6	-379320.3	1	408926.5	-68.06374	-1.338815E-009	0.7820368	7	2.470126E-008	0.0101029	1557.939
	16	31	2519.531	220612.5	-444544.3	1	496275.7	-63.60633	-1.798921E-010	0.7820373	6	1.956542E-008	0.0100193	1557.939
	17	33	2000.762	254417.9	-527364.5	1	585526.9	-64.24582	-2.064223E-010	0.7820376	6	1.67772E-008	0.0100297	1557.939
	18	35	1580.669	295290.8	-628161.3	1	694106.1	-64.82237	-1.807337E-010	0.7820386	6	1.421016E-008	0.0100009	1557.37
	19	37	1253.634	343650	-746801.8	1	822075.5	-65.28989	-1.391241E-010	0.7820355	6	1.205107E-008	0.0100017	1557.844
[...]
	21	40	790.0281	467467	-1055838	1	1154694	-66.11887	-1.303707E-010	0.7820932	6	8.616607E-009	0.0099994	1557.844
	22	42	628.811	545149.1	-1255545	1	1368788	-66.52984	-1.473779E-010	0.7820361	6	7.275703E-009	0.0099973	1557.275
	23	43	502.2321	634907.7	-1485376	1	1615379	-66.85625	-1.57688E-010	0.7820347	6	5.909686E-009	0.009621	1558.033
	24	45	400.1524	741886.4	-1765372	1	1914924	-67.20573	-1.277358E-010	0.7820383	6	5.301367E-009	0.0102062	1558.129
	25	47	315.5048	868495.9	-2115431	1	2286774	-67.67927	-1.368482E-010	0.7820367	6	4.405647E-009	0.0101122	1557.749
	26	49	252.0161	1217233	-2490937	1	2772440	-63.95687	-3.274424E-011	0.7820427	5	3.457075E-009	0.0100185	1557.464
	27	50	200.3205	1384240	-2971522	1	3278119	-65.02223	-2.961997E-011	0.7820423	5	2.949891E-009	0.0099831	1558.033
	28	52	158.0056	1583126	-3579506	1	3913969	-66.14139	-2.967599E-011	0.7820417	5	2.493194E-009	0.0099802	1558.033
	29	54	125.558	1814132	-4289698	1	4657530	-67.07629	-3.886831E-011	0.7820372	5	2.091163E-009	0.0098946	1558.033
	30	56	99.734	2115589	-5130728	1	5549782	-67.59184	-2.781243E-011	0.782041	5	1.749262E-009	0.0098139	1557.464
	31	57	79.44915	2071891	-5929870	1	6281408	-70.74064	-8.084197E-011	0.7820501	5	1.624641E-009	0.0102801	1557.939
	32	59	62.91946	3024019	-5117659	1	5944336	-59.42121	-5.801455E-011	0.7820574	5	1.674334E-009	0.0100008	1558.033
	33	61	49.86702	3641007	-9.963576E+006	1	1.060801E+007	-69.92609	1.378307E-011	0.7820529	5	9.400445E-010	0.0100032	1558.033
	34	63	40.0641	3944328	-1.06099E+007	1	1.131935E+007	-69.60691	-3.212875E-011	0.7820577	5	8.815942E-010	0.0099996	1557.939
	35	65	31.6723	4679802	-1.265231E+007	1	1.349005E+007	-69.70171	3.971617E-012	0.7820531	5	7.403312E-010	0.0100001	1558.033
	36	67	24.93351	6902255	-1.548535E+007	1	1.695397E+007	-65.97613	-7.575921E-012	0.7820545	4	5.676523E-010	0.0099996	1557.939
	37	69	20.03205	7877196	-1.843013E+007	1	2.004296E+007	-66.85773	-7.642059E-012	0.7820574	4	4.864841E-010	0.0099996	1557.37
	38	71	15.78283	9418143	-2.226593E+007	1	2.417588E+007	-67.07239	-1.06247E-011	0.7820569	4	4.07097E-010	0.0099995	1557.37
	39	74	12.46675	1.069665E+007	-2.672071E+007	1	2.878219E+007	-68.18313	-1.582932E-011	0.782052	4	3.439748E-010	0.0099999	1557.654
	40	76	9.9734	1.260458E+007	-3.203037E+007	1	3.442121E+007	-68.51939	-7.508081E-012	0.7820535	4	2.886696E-010	0.0100006	1557.37
	41	79	7.878151	1.545551E+007	-3.905156E+007	1	4.199878E+007	-68.40773	-2.042977E-012	0.7820587	4	2.371355E-010	0.0099997	1557.37
	42	82	6.351626	1.799057E+007	-4.611388E+007	1	4.949899E+007	-68.68757	-9.075106E-012	0.7820521	4	2.015027E-010	0.0100005	1557.464
	43	84	5.013369	2.035548E+007	-5.498827E+007	1	5.863494E+007	-69.68652	-7.898872E-012	0.7820582	4	1.702622E-010	0.0099997	1557.464
	44	88	3.985969	2.464579E+007	-6.571864E+007	1	7.018799E+007	-69.44296	-6.487603E-012	0.7820516	4	1.423319E-010	0.0100004	1557.939
	45	91	3.175813	2.756583E+007	-7.315279E+007	1	7.81742E+007	-69.35232	-1.388377E-011	0.7820531	4	1.278255E-010	0.0099993	1557.844
	46	95	2.516103	3.562283E+007	-9.464314E+007	1	1.011252E+008	-69.37411	-4.425244E-012	0.7820647	4	9.607773E-011	0.009606	1557.56
	47	99	1.99553	4.30181E+007	-1.130481E+008	1	1.209563E+008	-69.16671	-7.427588E-012	0.7820652	4	8.512416E-011	0.0102221	1557.56
	48	104	1.583615	5.075658E+007	-1.323294E+008	1	1.417297E+008	-69.01508	-7.708578E-012	0.782057	4	7.155327E-011	0.0100952	1558.033
	49	109	1.258052	6.606599E+007	-1.654128E+008	1	1.781183E+008	-68.2282	-7.404008E-012	0.7820659	4	5.653995E-011	0.0100421	1558.033
	50	123	0.997765	7.322486E+007	-1.927113E+008	1	2.061542E+008	-69.19463	-7.265677E-012	0.7820652	4	4.868917E-011	0.0100196	1557.654

File: 1123 NHP wafer P1e24c.DTA
EXPLAIN
TAG	EISPOT
TITLE	LABEL	Potentiostatic EIS	Test &Identifier
DATE	LABEL	11/23/2025	Date
TIME	LABEL	11:21:05	Time
NOTES	NOTES	1	&Notes...

PSTAT	PSTAT	IFC1010-39067	Potentiostat
VDC	POTEN	0.00000E+000	T	DC &Voltage (V)
FREQINIT	QUANT	1.00000E+005	Initial Fre&q. (Hz)
FREQFINAL	QUANT	1.00000E+000	Final Fre&q. (Hz)
PTSPERDEC	QUANT	1.00000E+001	Points/&decade
VAC	QUANT	1.00000E+001	AC &Voltage (mV rms)
AREA	QUANT	2.00000E-001	&Area (cm^2)
CONDIT	TWOPARAM	F	1.50000E+001	0.00000E+000	Conditionin&g	Time(s)	E(V)
DELAY	TWOPARAM	F	1.00000E+002	0.00000E+000	Init. De&lay	Time(s)	Stab.(mV/s)
SPEED	SELECTOR	1	&Optimize for:
THD	SELECTOR	0	T&HD
DRIFTCOR	SELECTOR	0	&Drift Correction
ZGUESS	QUANT	1.00000E+006	E&stimated Z (ohms)
OCVCURVE	TABLE	39
	Pt	T	Vf	Vm	Ach	Over	Temp
	#	s	V vs. Ref.	V	V	bits	deg C
	0	0.258333	8.10829E-001	8.10829E-001	0.00000E+000	...........	1559.55
	1	0.516667	8.10830E-001	8.10893E-001	0.00000E+000	...........	1559.55
	2	0.775	8.10847E-001	8.11432E-001	0.00000E+000	...........	1557.84
	3	1.03333	8.10926E-001	8.12025E-001	0.00000E+000	...........	1557.84
	4	1.29167	8.11123E-001	8.12100E-001	0.00000E+000	...........	1557.84
	5	1.55	8.11437E-001	8.12737E-001	0.00000E+000	...........	1557.84
	6	1.80833	8.11809E-001	8.12716E-001	0.00000E+000	...........	1558.22
	7	2.06667	8.12180E-001	8.13252E-001	0.00000E+000	...........	1558.22
	8	2.325	8.12519E-001	8.13304E-001	0.00000E+000	...........	1558.22
	9	2.58333	8.12829E-001	8.13923E-001	0.00000E+000	...........	1558.22
	10	2.84167	8.13125E-001	8.13764E-001	0.00000E+000	...........	1558.32
	11	3.1	8.13409E-001	8.14215E-001	0.00000E+000	...........	1558.32
	12	3.35833	8.13675E-001	8.14638E-001	0.00000E+000	...........	1558.32
	13	3.61667	8.13945E-001	8.15137E-001	0.00000E+000	...........	1558.32
	14	3.875	8.14258E-001	8.15317E-001	0.00000E+000	...........	1558.22
	15	4.13333	8.14621E-001	8.15983E-001	0.00000E+000	...........	1558.22
	16	4.39167	8.15013E-001	8.16225E-001	0.00000E+000	...........	1558.22
	17	4.65	8.15425E-001	8.16902E-001	0.00000E+000	...........	1558.22
	18	4.90833	8.15863E-001	8.17549E-001	0.00000E+000	...........	1558.22
	19	5.16667	8.16326E-001	8.17034E-001	0.00000E+000	...........	1558.22
	20	5.425	8.16741E-001	8.16662E-001	0.00000E+000	...........	1558.22
	21	5.68333	8.16986E-001	8.17205E-001	0.00000E+000	...........	1558.22
	22	5.94167	8.17054E-001	8.17287E-001	0.00000E+000	...........	1558.32
	23	6.2	8.17078E-001	8.17815E-001	0.00000E+000	...........	1558.32
	24	6.45833	8.17179E-001	8.17693E-001	0.00000E+000	...........	1558.32
	25	6.71667	8.17355E-001	8.17588E-001	0.00000E+000	...........	1558.32
	26	6.975	8.17533E-001	8.18119E-001	0.00000E+000	...........	1558.32
	27	7.23333	8.17679E-001	8.18271E-001	0.00000E+000	...........	1558.32
	28	7.49167	8.17827E-001	8.18184E-001	0.00000E+000	...........	1558.32
	29	7.75	8.17997E-001	8.18822E-001	0.00000E+000	...........	1558.06
	30	8.00833	8.18186E-001	8.18870E-001	0.00000E+000	...........	1557.84
	31	8.26667	8.18406E-001	8.19323E-001	0.00000E+000	...........	1557.84
	32	8.525	8.18656E-001	8.19245E-001	0.00000E+000	...........	1557.84
	33	8.78333	8.18913E-001	8.19730E-001	0.00000E+000	...........	1558.22
	34	9.04167	8.19154E-001	8.19784E-001	0.00000E+000	...........	1558.22
	35	9.3	8.19384E-001	8.20175E-001	0.00000E+000	...........	1558.22
	36	9.5583	8.19610E-001	8.20055E-001	0.00000E+000	...........	1558.22
	37	9.8167	8.19808E-001	8.19722E-001	0.00000E+000	...........	1558.22
	38	10.075	8.19932E-001	8.20081E-001	0.00000E+000	...........	1558.22
EOC	QUANT	0.8199318	Open Circuit (V)
PSTATMODEL	IQUANT	64	Pstat Model
PSTATSECTION	LABEL	IFC1010-39067	Pstat Section
PSTATSERIALNO	LABEL	39067	Pstat Serial Number
CTRLMODE	IQUANT	1	Control Mode
ELECTROMETER	IQUANT	0	RE=0 or CS=1
IESTAB	IQUANT	0	I/E Stability
CASPEED	IQUANT	3	Control Amp Speed
CONVENTION	IQUANT	1	Current Convention
ICHRANGE	IQUANT	2	Ich Range
ICHRANGEMODE	TOGGLE	F	Ich Auto Range
ICHOFFSETENABLE	TOGGLE	T	Ich Offset Enable
ICHOFFSET	QUANT	0	Ich Offset (V)
ICHFILTER	IQUANT	4	Ich Filter
VCHRANGE	IQUANT	2	Vch Range
VCHRANGEMODE	TOGGLE	F	Vch Auto Range
VCHOFFSETENABLE	TOGGLE	T	Vch Offset Enable
VCHOFFSET	QUANT	0	Vch Offset (V)
VCHFILTER	IQUANT	4	Vch Filter
IERANGELOWERLIMIT	IQUANT	4	I/E Range Lower Limit
IERANGEMODE	TOGGLE	F	I/E AutoRange
IERANGE	IQUANT	6	I/E Range
ACHSELECT	IQUANT	0	Ach Select
ACHRANGE	IQUANT	2	Ach Range
ACHOFFSETENABLE	TOGGLE	F	Ach Offset Enable
ACHOFFSET	QUANT	0	Ach Offset (V)
ACHFILTER	IQUANT	1	Ach Filter
SENSECABLEID	IQUANT	14	Sense Cable ID
PWRCABLEID	IQUANT	14	Power Cable ID
DCCALDATE	LABEL	11/8/2025	DC Calibration Date
ACCALDATE	LABEL	5/30/2024	AC Calibration Date
FRAMEWORKVERSION	LABEL	7.10.3	Framework Version
INSTRUMENTVERSION	LABEL	4.91	Instrument Version
COMMVERSION	LABEL	3.10	Communications Version
CPUPLDVERSION	LABEL	2.50	CPU PLD Version
CTRLPLDVERSION	LABEL	0.00	CTRL PLD Version
PSTATPLDVERSION	LABEL	0.00	PSTAT PLD Version
ZCURVE	TABLE
	Pt	Time	Freq	Zreal	Zimag	Zsig	Zmod	Zphz	Idc	Vdc	IERange	Imod	Vmod	Temp
	#	s	Hz	ohm	ohm	V	ohm	°	A	V	#	A	V	°C
	0	2	100019.5	10948.71	-24995.45	1	27288.22	-66.34522	-1.679711E-008	0.8200746	8	3.636983E-007	0.0099799	1558.129
	1	4	79511.72	12625.48	-29925.46	1	32479.78	-67.12523	-9.843839E-009	0.8200353	8	3.152677E-007	0.0102816	1558.129
	2	6	63105.47	14629.53	-35791.34	1	38665.79	-67.76795	-1.625213E-008	0.820074	8	2.614397E-007	0.0101378	1558.033
	3	9	50214.84	17115.27	-43047.11	1	46324.79	-68.31754	-1.70747E-008	0.820073	8	2.163541E-007	0.0100425	1557.56
	4	11	39902.34	20198.32	-51375.2	1	55203.11	-68.53757	-8.527359E-009	0.8200359	8	1.816794E-007	0.0100427	1558.129
	5	13	31699.22	23612.14	-61756.76	1	66116.8	-69.0761	-1.623345E-008	0.8200711	8	1.5103E-007	0.0099945	1558.129
	6	15	25136.72	34368.81	-73526.14	1	81162.23	-64.94689	-2.572197E-009	0.8200495	7	1.207804E-007	0.0100973	1558.033
	7	17	19980.47	39497.23	-87834.6	1	96306.5	-65.78763	-2.87472E-009	0.8200503	7	1.016997E-007	0.0099861	1557.939
	8	20	15878.91	45704.73	-105259.5	1	114754	-66.52904	-3.226914E-009	0.8200483	7	8.582968E-008	0.0099759	1557.939
	9	22	12597.66	53622.39	-125943	1	136883.2	-66.93729	-2.279267E-010	0.8200632	7	7.240547E-008	0.0099952	1558.033
	10	24	10019.53	63015.55	-149956.8	1	162659.2	-67.20666	-3.30728E-010	0.8200629	7	6.106765E-008	0.0099894	1558.033
	11	26	7928.241	74573.93	-180411.9	1	195217.1	-67.54206	-3.451263E-010	0.8201914	7	5.095713E-008	0.0099851	1558.129
	12	29	6307.871	88250.95	-215702.8	1	233057.8	-67.74895	-2.717744E-010	0.8201935	7	4.285504E-008	0.0100127	1558.129
	13	31	5034.722	103963.1	-256146.7	1	276440.7	-67.90907	-1.094382E-009	0.8201297	7	3.491465E-008	0.0096598	1558.033
	14	33	3993.056	124025.7	-305753.1	1	329950.5	-67.92056	-1.1754E-009	0.8201309	7	3.093096E-008	0.0102096	1557.939
	15	35	3144.055	148822.6	-366605	1	395660.7	-67.9054	-1.386612E-009	0.8200729	7	2.544961E-008	0.0100713	1557.939
	16	37	2519.531	214592.6	-429806.2	1	480399.1	-63.46807	-2.306482E-010	0.8200707	6	2.0277E-008	0.0100515	1557.939
	17	40	2000.762	247089.8	-509816	1	566538.4	-64.14217	-1.900213E-010	0.8200722	6	1.728639E-008	0.0099989	1557.939
	18	43	1580.669	286891.8	-608168.6	1	672440.3	-64.74531	-1.93224E-010	0.8200737	6	1.46694E-008	0.0100018	1557.939
	19	46	1253.634	332993.3	-724088.2	1	796987	-65.30327	-1.97182E-010	0.8200734	6	1.24306E-008	0.0100018	1557.939
[...]
	21	51	790.0281	452591	-1026297	1	1121662	-66.20281	-1.87048E-010	0.8201302	6	8.870201E-009	0.0099993	1557.844
	22	53	628.811	524726.1	-1219795	1	1327870	-66.7238	-2.181784E-010	0.8200719	6	7.499374E-009	0.0099966	1557.939
	23	56	502.2321	611570.5	-1445018	1	1569107	-67.06062	-2.011004E-010	0.8200729	6	6.083451E-009	0.0096202	1558.033
	24	60	400.1524	713199.5	-1717767	1	1859940	-67.45227	-1.992671E-010	0.8200691	6	5.473931E-009	0.0102358	1558.129
	25	63	315.5048	835331.4	-2061831	1	2224617	-67.94513	-1.715355E-010	0.820071	6	4.515324E-009	0.0100822	1558.129
	26	65	252.0161	1172299	-2433100	1	2700789	-64.27463	-3.119898E-011	0.8200772	5	3.548616E-009	0.010018	1558.033
	27	67	200.3205	1332442	-2901498	1	3192818	-65.33421	-2.739801E-011	0.8200783	5	3.038169E-009	0.0100143	1558.033
	28	70	158.0056	1522455	-3486992	1	3804863	-66.41344	-2.382384E-011	0.8200755	5	2.556615E-009	0.0099488	1558.033
	29	72	125.558	1770724	-4147870	1	4510021	-66.88238	-1.70036E-011	0.8200704	5	2.166285E-009	0.0099255	1558.033
	30	74	99.734	2017219	-5027908	1	5417475	-68.13912	-2.400479E-011	0.8200755	5	1.786509E-009	0.0097839	1558.033
	31	77	79.44915	2379416	-6043078	1	6494645	-68.50834	-2.364162E-011	0.8200858	5	1.572733E-009	0.0102895	1558.033
	32	79	62.91946	5676431	-7110100	1	9098098	-51.39748	-1.608456E-012	0.8200925	5	1.093945E-009	0.0100009	1558.033
	33	81	49.86702	3214394	-9.680351E+006	1	1.020008E+007	-71.63108	-4.216663E-011	0.8200874	5	9.776635E-010	0.0100034	1558.033
	34	84	40.0641	3742503	-1.050678E+007	1	1.115342E+007	-70.39417	-2.929966E-011	0.8200926	5	8.947607E-010	0.0100002	1558.033
	35	87	31.6723	4708605	-1.278892E+007	1	1.362818E+007	-69.78738	-3.565652E-011	0.8200872	5	7.327745E-010	0.0099994	1558.033
	36	90	24.93351	6682770	-1.531156E+007	1	1.670638E+007	-66.42101	-5.708981E-012	0.8200881	4	5.760669E-010	0.0099997	1557.939
	37	93	20.03205	7670577	-1.829017E+007	1	1.98335E+007	-67.24767	-7.765193E-012	0.8200936	4	4.916565E-010	0.0100003	1557.939
	38	96	15.78283	8886086	-2.214712E+007	1	2.386331E+007	-68.13787	-8.129895E-012	0.8200929	4	4.124414E-010	0.0099998	1557.37
	39	99	12.46675	1.034239E+007	-2.666748E+007	1	2.860279E+007	-68.80233	-7.118997E-012	0.8200879	4	3.461369E-010	0.0100001	1557.37
	40	102	9.9734	1.204362E+007	-3.175651E+007	1	3.396358E+007	-69.23082	-4.732851E-012	0.8200892	4	2.925459E-010	0.0100001	1557.939
	41	105	7.878151	1.396176E+007	-3.787994E+007	1	4.037104E+007	-69.76716	-3.739818E-012	0.8200926	4	2.466978E-010	0.0099997	1557.939
	42	109	6.351626	1.618943E+007	-4.487803E+007	1	4.770886E+007	-70.16345	-3.406432E-012	0.8200883	4	2.090543E-010	0.01	1557.939
	43	112	5.013369	2.057395E+007	-5.540929E+007	1	5.910564E+007	-69.62961	-5.682314E-012	0.8200939	4	1.689121E-010	0.0100001	1557.464
	44	115	3.985969	2.533529E+007	-6.72281E+007	1	7.184354E+007	-69.3508	-7.968778E-012	0.8200875	4	1.390498E-010	0.0100002	1557.464
	45	119	3.175813	2.923437E+007	-7.997011E+007	1	8.514615E+007	-69.9193	-5.345107E-012	0.8200888	4	1.173641E-010	0.0099997	1557.464
	46	123	2.516103	3.295141E+007	-9.372017E+007	1	9.934418E+007	-70.62865	-5.661813E-012	0.8201011	4	9.780481E-011	0.0096064	1557.56
	47	127	1.99553	4.079856E+007	-1.115253E+008	1	1.187536E+008	-69.90631	-5.20124E-012	0.8201008	4	8.6696E-011	0.0102212	1557.56
	48	132	1.583615	4.688498E+007	-1.361797E+008	1	1.440247E+008	-71.00205	-6.029486E-012	0.8200939	4	7.041359E-011	0.0100953	1558.033
	49	138	1.258052	6.126686E+007	-1.605224E+008	1	1.718169E+008	-69.10956	-5.136485E-012	0.8201012	4	5.861386E-011	0.0100422	1557.654
	50	144	0.997765	7.222247E+007	-1.939746E+008	1	2.069836E+008	-69.57821	-5.197016E-012	0.820102	4	4.84942E-011	0.0100196	1557.654