Folder: NHPflex2025/figures/Figure 1/EIS data (part 14)

File: 1123 NHP wafer P1e25c.DTA
EXPLAIN
TAG	EISPOT
TITLE	LABEL	Potentiostatic EIS	Test &Identifier
DATE	LABEL	11/23/2025	Date
TIME	LABEL	11:33:15	Time
NOTES	NOTES	1	&Notes...

PSTAT	PSTAT	IFC1010-39067	Potentiostat
VDC	POTEN	0.00000E+000	T	DC &Voltage (V)
FREQINIT	QUANT	1.00000E+005	Initial Fre&q. (Hz)
FREQFINAL	QUANT	1.00000E+000	Final Fre&q. (Hz)
PTSPERDEC	QUANT	1.00000E+001	Points/&decade
VAC	QUANT	1.00000E+001	AC &Voltage (mV rms)
AREA	QUANT	2.00000E-001	&Area (cm^2)
CONDIT	TWOPARAM	F	1.50000E+001	0.00000E+000	Conditionin&g	Time(s)	E(V)
DELAY	TWOPARAM	F	1.00000E+002	0.00000E+000	Init. De&lay	Time(s)	Stab.(mV/s)
SPEED	SELECTOR	1	&Optimize for:
THD	SELECTOR	0	T&HD
DRIFTCOR	SELECTOR	0	&Drift Correction
ZGUESS	QUANT	1.00000E+006	E&stimated Z (ohms)
OCVCURVE	TABLE	39
	Pt	T	Vf	Vm	Ach	Over	Temp
	#	s	V vs. Ref.	V	V	bits	deg C
	0	0.258333	8.13372E-001	8.13372E-001	0.00000E+000	...........	1559.46
	1	0.516667	8.13438E-001	8.16845E-001	0.00000E+000	...........	1559.46
	2	0.775	8.13776E-001	8.16480E-001	0.00000E+000	...........	1559.46
	3	1.03333	8.14559E-001	8.19282E-001	0.00000E+000	...........	1559.46
	4	1.29167	8.15760E-001	8.21320E-001	0.00000E+000	...........	1558.32
	5	1.55	8.17234E-001	8.20214E-001	0.00000E+000	...........	1558.32
	6	1.80833	8.18615E-001	8.16112E-001	0.00000E+000	...........	1558.32
	7	2.06667	8.19154E-001	8.10313E-001	0.00000E+000	...........	1558.32
	8	2.325	8.18438E-001	8.24366E-001	0.00000E+000	...........	1558.32
	9	2.58333	8.17398E-001	8.18019E-001	0.00000E+000	...........	1558.32
	10	2.84167	8.17224E-001	8.14289E-001	0.00000E+000	...........	1558.32
	11	3.1	8.17600E-001	8.19134E-001	0.00000E+000	...........	1558.32
	12	3.35833	8.17735E-001	8.19915E-001	0.00000E+000	...........	1558.32
	13	3.61667	8.17848E-001	8.19796E-001	0.00000E+000	...........	1558.32
	14	3.875	8.18429E-001	8.24179E-001	0.00000E+000	...........	1558.32
	15	4.13333	8.19614E-001	8.28227E-001	0.00000E+000	...........	1558.32
	16	4.39167	8.21423E-001	8.25112E-001	0.00000E+000	...........	1558.32
	17	4.65	8.23445E-001	8.24109E-001	0.00000E+000	...........	1558.32
	18	4.90833	8.24749E-001	8.19774E-001	0.00000E+000	...........	1558.32
	19	5.16667	8.24643E-001	8.18387E-001	0.00000E+000	...........	1558.32
	20	5.425	8.23299E-001	8.21195E-001	0.00000E+000	...........	1558.32
	21	5.68333	8.21671E-001	8.21979E-001	0.00000E+000	...........	1558.32
	22	5.94167	8.20795E-001	8.24070E-001	0.00000E+000	...........	1558.32
	23	6.2	8.20995E-001	8.23037E-001	0.00000E+000	...........	1558.26
	24	6.45833	8.21827E-001	8.23340E-001	0.00000E+000	...........	1558.03
	25	6.71667	8.22638E-001	8.22790E-001	0.00000E+000	...........	1558.03
	26	6.975	8.23107E-001	8.24745E-001	0.00000E+000	...........	1558.03
	27	7.23333	8.23373E-001	8.24879E-001	0.00000E+000	...........	1558.11
	28	7.49167	8.23703E-001	8.24723E-001	0.00000E+000	...........	1558.13
	29	7.75	8.24146E-001	8.25481E-001	0.00000E+000	...........	1558.13
	30	8.00833	8.24598E-001	8.26287E-001	0.00000E+000	...........	1558.13
	31	8.26667	8.25046E-001	8.26688E-001	0.00000E+000	...........	1558.22
	32	8.525	8.25550E-001	8.27462E-001	0.00000E+000	...........	1558.22
	33	8.78333	8.26105E-001	8.27185E-001	0.00000E+000	...........	1558.22
	34	9.04167	8.26627E-001	8.27572E-001	0.00000E+000	...........	1558.22
	35	9.3	8.27035E-001	8.27794E-001	0.00000E+000	...........	1558.32
	36	9.5583	8.27333E-001	8.28300E-001	0.00000E+000	...........	1558.32
	37	9.8167	8.27592E-001	8.28394E-001	0.00000E+000	...........	1558.32
	38	10.075	8.27861E-001	8.28612E-001	0.00000E+000	...........	1558.32
EOC	QUANT	0.8278607	Open Circuit (V)
PSTATMODEL	IQUANT	64	Pstat Model
PSTATSECTION	LABEL	IFC1010-39067	Pstat Section
PSTATSERIALNO	LABEL	39067	Pstat Serial Number
CTRLMODE	IQUANT	1	Control Mode
ELECTROMETER	IQUANT	0	RE=0 or CS=1
IESTAB	IQUANT	0	I/E Stability
CASPEED	IQUANT	3	Control Amp Speed
CONVENTION	IQUANT	1	Current Convention
ICHRANGE	IQUANT	2	Ich Range
ICHRANGEMODE	TOGGLE	F	Ich Auto Range
ICHOFFSETENABLE	TOGGLE	T	Ich Offset Enable
ICHOFFSET	QUANT	0	Ich Offset (V)
ICHFILTER	IQUANT	4	Ich Filter
VCHRANGE	IQUANT	2	Vch Range
VCHRANGEMODE	TOGGLE	F	Vch Auto Range
VCHOFFSETENABLE	TOGGLE	T	Vch Offset Enable
VCHOFFSET	QUANT	0	Vch Offset (V)
VCHFILTER	IQUANT	4	Vch Filter
IERANGELOWERLIMIT	IQUANT	4	I/E Range Lower Limit
IERANGEMODE	TOGGLE	F	I/E AutoRange
IERANGE	IQUANT	6	I/E Range
ACHSELECT	IQUANT	0	Ach Select
ACHRANGE	IQUANT	2	Ach Range
ACHOFFSETENABLE	TOGGLE	F	Ach Offset Enable
ACHOFFSET	QUANT	0	Ach Offset (V)
ACHFILTER	IQUANT	1	Ach Filter
SENSECABLEID	IQUANT	14	Sense Cable ID
PWRCABLEID	IQUANT	14	Power Cable ID
DCCALDATE	LABEL	11/8/2025	DC Calibration Date
ACCALDATE	LABEL	5/30/2024	AC Calibration Date
FRAMEWORKVERSION	LABEL	7.10.3	Framework Version
INSTRUMENTVERSION	LABEL	4.91	Instrument Version
COMMVERSION	LABEL	3.10	Communications Version
CPUPLDVERSION	LABEL	2.50	CPU PLD Version
CTRLPLDVERSION	LABEL	0.00	CTRL PLD Version
PSTATPLDVERSION	LABEL	0.00	PSTAT PLD Version
ZCURVE	TABLE
	Pt	Time	Freq	Zreal	Zimag	Zsig	Zmod	Zphz	Idc	Vdc	IERange	Imod	Vmod	Temp
	#	s	Hz	ohm	ohm	V	ohm	°	A	V	#	A	V	°C
	0	1	100019.5	10319.54	-21578.75	1	23919.36	-64.44161	-2.094566E-008	0.8280682	8	4.158775E-007	0.0100028	1558.129
	1	3	79511.72	11681.56	-25852.23	1	28368.94	-65.68374	-2.057055E-008	0.8280696	8	3.604542E-007	0.0102674	1557.749
	2	5	63105.47	13214.57	-31160.29	1	33846.55	-67.01899	-1.537992E-008	0.8280291	8	2.996191E-007	0.0101702	1557.654
	3	7	50214.84	15191.39	-37462.04	1	40425.03	-67.92674	-1.482398E-008	0.8280308	8	2.482425E-007	0.0100551	1557.56
	4	9	39902.34	17560.73	-45433.56	1	48709.21	-68.86777	-2.061932E-008	0.8280683	8	2.056245E-007	0.0100293	1557.654
	5	10	31699.22	20391.69	-54473.69	1	58165.31	-69.47711	-1.405509E-008	0.8280328	8	1.720682E-007	0.0100173	1558.033
	6	12	25136.72	29290.77	-65633.05	1	71872.44	-65.94971	-6.597289E-010	0.8280575	7	1.364587E-007	0.0101022	1558.033
	7	14	19980.47	33585.69	-78899.15	1	85750.07	-66.94157	-3.194851E-009	0.8280425	7	1.142842E-007	0.0099918	1558.033
	8	16	15878.91	38649.36	-94837.63	1	102410.7	-67.82754	-4.879647E-010	0.8280588	7	9.618484E-008	0.009977	1557.654
	9	18	12597.66	44862.86	-113971.4	1	122483.3	-68.51379	-9.374153E-010	0.8280609	7	8.093162E-008	0.0099969	1557.464
	10	20	10019.53	52669.44	-137149.4	1	146915	-68.99172	-4.88583E-010	0.8280572	7	6.762719E-008	0.0099917	1557.939
	11	21	7928.241	63066.96	-166251.3	1	177811.5	-69.2259	-6.212172E-010	0.8281879	7	5.594867E-008	0.0099857	1558.129
	12	23	6307.871	74274.16	-199278.3	1	212669.9	-69.55878	-6.847011E-010	0.8281919	7	4.681327E-008	0.0099807	1558.129
	13	25	5034.722	88716.34	-237577.6	1	253601.5	-69.52334	-1.476624E-009	0.8281288	7	3.818105E-008	0.0096907	1558.224
	14	27	3993.056	106410.7	-285273.7	1	304473.8	-69.54384	-1.397649E-009	0.8281291	7	3.341832E-008	0.0101789	1557.464
	15	29	3144.055	128719.9	-343201	1	366545.7	-69.44109	-1.61322E-009	0.8280697	7	2.747356E-008	0.0100722	1557.749
	16	31	2519.531	189072.9	-404784.3	1	446765	-64.96294	-2.25219E-010	0.828071	6	2.180524E-008	0.0100523	1557.464
	17	32	2000.762	218533.4	-482041.7	1	529264.6	-65.61285	-2.173883E-010	0.8280713	6	1.850563E-008	0.0099999	1557.939
	18	34	1580.669	254725.3	-576797.9	1	630540.1	-66.17281	-1.986191E-010	0.8280692	6	1.564629E-008	0.0100032	1557.939
	19	36	1253.634	297644.6	-687718.1	1	749365.4	-66.59702	-2.040115E-010	0.8280706	6	1.32209E-008	0.0100021	1557.939
[...]
	21	40	790.0281	406090.2	-978726	1	1059629	-67.4656	-1.552973E-010	0.8281292	6	9.388819E-009	0.0099986	1557.464
	22	41	628.811	475995.1	-1165513	1	1258965	-67.78492	-1.626691E-010	0.8280683	6	7.910593E-009	0.0099976	1557.939
	23	43	502.2321	555601.9	-1385691	1	1492928	-68.15137	-1.367617E-010	0.8280696	6	6.393481E-009	0.0096197	1557.749
	24	45	400.1524	649263.8	-1651064	1	1774135	-68.53329	-1.54311E-010	0.8280698	6	5.738772E-009	0.010236	1557.56
	25	46	315.5048	761086.2	-1984336	1	2125287	-69.01584	-1.659991E-010	0.8280699	6	4.725697E-009	0.0100808	1558.033
	26	48	252.0161	1084123	-2343412	1	2582035	-65.17352	-5.368369E-011	0.8280746	5	3.723257E-009	0.0100489	1558.224
	27	50	200.3205	1226282	-2807324	1	3063468	-66.40356	-2.791203E-011	0.8280749	5	3.156754E-009	0.0099836	1557.56
	28	52	158.0056	1397286	-3394509	1	3670844	-67.6264	-2.293133E-011	0.828073	5	2.658152E-009	0.0099796	1557.464
	29	53	125.558	1600583	-4157130	1	4454615	-68.94224	-9.604579E-012	0.8280702	5	2.186382E-009	0.0098945	1558.033
	30	55	99.734	1862217	-4853976	1	5198936	-69.0108	-1.576806E-011	0.8280743	5	1.867191E-009	0.0098133	1558.033
	31	57	79.44915	2174741	-5874912	1	6264510	-69.68674	-2.812772E-011	0.828087	5	1.62881E-009	0.0102788	1558.033
	32	59	62.91946	1495956	-1.006561E+007	1	1.017617E+007	-81.54655	-1.30444E-011	0.8280906	5	9.777287E-010	0.0099976	1557.56
	33	60	49.86702	2262118	-8766050	1	9053221	-75.53024	-1.98203E-011	0.8280864	5	1.101446E-009	0.0100028	1558.033
	34	62	40.0641	3510830	-1.03727E+007	1	1.095075E+007	-71.30067	-2.761596E-011	0.8280914	5	9.113196E-010	0.0100002	1558.033
	35	64	31.6723	4078396	-1.239259E+007	1	1.304644E+007	-71.78365	-1.279606E-011	0.8280873	5	7.655077E-010	0.0100002	1558.033
	36	66	24.93351	6689916	-1.557479E+007	1	1.695079E+007	-66.75479	-5.868905E-012	0.8280868	4	5.677638E-010	0.0099997	1557.889
	37	68	20.03205	7117579	-1.809803E+007	1	1.944733E+007	-68.53131	-2.415276E-012	0.8280929	4	5.014362E-010	0.0100006	1557.464
	38	70	15.78283	8398318	-2.201114E+007	1	2.35589E+007	-69.11572	-2.504492E-012	0.8280907	4	4.177738E-010	0.0099999	1557.464
	39	72	12.46675	1.007774E+007	-2.675747E+007	1	2.859236E+007	-69.36199	-5.581111E-012	0.8280878	4	3.462506E-010	0.0099997	1557.464
	40	75	9.9734	1.147145E+007	-3.185914E+007	1	3.386146E+007	-70.19769	1.909978E-012	0.828087	4	2.934245E-010	0.01	1557.37
	41	77	7.878151	1.293994E+007	-3.777794E+007	1	3.993263E+007	-71.09232	-5.617525E-013	0.8280916	4	2.493853E-010	0.0099989	1557.37
	42	80	6.351626	1.588292E+007	-4.537982E+007	1	4.807905E+007	-70.70998	-3.326935E-013	0.8280871	4	2.074609E-010	0.0100008	1557.464
	43	83	5.013369	1.913742E+007	-5.465645E+007	1	5.791E+007	-70.7028	-1.781524E-012	0.828092	4	1.723983E-010	0.01	1557.464
	44	86	3.985969	2.265132E+007	-6.566754E+007	1	6.946444E+007	-70.96867	-2.277744E-012	0.8280888	4	1.438042E-010	0.0099997	1557.464
	45	90	3.175813	2.694657E+007	-7.864053E+007	1	8.312912E+007	-71.08572	-3.454238E-012	0.8280874	4	1.202171E-010	0.0100001	1557.464
	46	93	2.516103	3.495845E+007	-9.984989E+007	1	1.057927E+008	-70.70434	-7.874532E-012	0.8281003	4	9.184056E-011	0.0096062	1558.033
	47	97	1.99553	4.405771E+007	-1.179635E+008	1	1.259224E+008	-69.52004	-5.056331E-012	0.8281006	4	8.176477E-011	0.0102218	1557.56
	48	101	1.583615	4.86252E+007	-1.392809E+008	1	1.475248E+008	-70.75508	-4.675039E-012	0.8280907	4	6.87417E-011	0.0100951	1558.018
	49	107	1.258052	5.91959E+007	-1.669382E+008	1	1.771229E+008	-70.47562	-4.088454E-012	0.8281003	4	5.685503E-011	0.0100416	1557.654
	50	113	0.997765	6.949486E+007	-1.989397E+008	1	2.107286E+008	-70.74435	-4.89606E-012	0.8281008	4	4.763335E-011	0.0100198	1557.56

File: 1123 NHP wafer P1e26a.DTA
EXPLAIN
TAG	EISPOT
TITLE	LABEL	Potentiostatic EIS	Test &Identifier
DATE	LABEL	11/23/2025	Date
TIME	LABEL	11:35:57	Time
NOTES	NOTES	1	&Notes...

PSTAT	PSTAT	IFC1010-39067	Potentiostat
VDC	POTEN	0.00000E+000	T	DC &Voltage (V)
FREQINIT	QUANT	1.00000E+005	Initial Fre&q. (Hz)
FREQFINAL	QUANT	1.00000E+000	Final Fre&q. (Hz)
PTSPERDEC	QUANT	1.00000E+001	Points/&decade
VAC	QUANT	1.00000E+001	AC &Voltage (mV rms)
AREA	QUANT	2.00000E-001	&Area (cm^2)
CONDIT	TWOPARAM	F	1.50000E+001	0.00000E+000	Conditionin&g	Time(s)	E(V)
DELAY	TWOPARAM	F	1.00000E+002	0.00000E+000	Init. De&lay	Time(s)	Stab.(mV/s)
SPEED	SELECTOR	1	&Optimize for:
THD	SELECTOR	0	T&HD
DRIFTCOR	SELECTOR	0	&Drift Correction
ZGUESS	QUANT	1.00000E+006	E&stimated Z (ohms)
OCVCURVE	TABLE	39
	Pt	T	Vf	Vm	Ach	Over	Temp
	#	s	V vs. Ref.	V	V	bits	deg C
	0	0.258333	7.07004E-001	7.07004E-001	0.00000E+000	...........	1559.46
	1	0.516667	7.06992E-001	7.06405E-001	0.00000E+000	...........	1559.46
	2	0.775	7.06930E-001	7.06278E-001	0.00000E+000	...........	1559.46
	3	1.03333	7.06780E-001	7.05957E-001	0.00000E+000	...........	1559.46
	4	1.29167	7.06558E-001	7.06201E-001	0.00000E+000	...........	1558.88
	5	1.55	7.06386E-001	7.08483E-001	0.00000E+000	...........	1558.03
	6	1.80833	7.06516E-001	7.10567E-001	0.00000E+000	...........	1558.03
	7	2.06667	7.07142E-001	7.08580E-001	0.00000E+000	...........	1558.03
	8	2.325	7.08038E-001	7.08251E-001	0.00000E+000	...........	1558.22
	9	2.58333	7.08625E-001	7.05658E-001	0.00000E+000	...........	1558.22
	10	2.84167	7.08514E-001	7.06416E-001	0.00000E+000	...........	1558.22
	11	3.1	7.07821E-001	7.05416E-001	0.00000E+000	...........	1558.22
	12	3.35833	7.06922E-001	7.03484E-001	0.00000E+000	...........	1558.22
	13	3.61667	7.06022E-001	7.03853E-001	0.00000E+000	...........	1558.22
	14	3.875	7.05156E-001	7.03587E-001	0.00000E+000	...........	1558.22
	15	4.13333	7.04359E-001	7.00226E-001	0.00000E+000	...........	1558.22
	16	4.39167	7.03654E-001	7.06359E-001	0.00000E+000	...........	1558.32
	17	4.65	7.03244E-001	7.04861E-001	0.00000E+000	...........	1558.32
	18	4.90833	7.03371E-001	7.02386E-001	0.00000E+000	...........	1558.32
	19	5.16667	7.03734E-001	7.02726E-001	0.00000E+000	...........	1558.32
	20	5.425	7.03785E-001	7.03427E-001	0.00000E+000	...........	1558.32
	21	5.68333	7.03511E-001	7.03265E-001	0.00000E+000	...........	1558.32
	22	5.94167	7.03268E-001	7.03657E-001	0.00000E+000	...........	1558.32
	23	6.2	7.03205E-001	7.02384E-001	0.00000E+000	...........	1558.32
	24	6.45833	7.03190E-001	7.02487E-001	0.00000E+000	...........	1558.32
	25	6.71667	7.03023E-001	7.00328E-001	0.00000E+000	...........	1558.32
	26	6.975	7.02621E-001	7.02178E-001	0.00000E+000	...........	1558.32
	27	7.23333	7.02152E-001	7.03555E-001	0.00000E+000	...........	1558.32
	28	7.49167	7.01972E-001	7.03067E-001	0.00000E+000	...........	1558.32
	29	7.75	7.02224E-001	7.03428E-001	0.00000E+000	...........	1558.32
	30	8.00833	7.02690E-001	7.03978E-001	0.00000E+000	...........	1558.32
	31	8.26667	7.03137E-001	7.04238E-001	0.00000E+000	...........	1558.32
	32	8.525	7.03485E-001	7.02641E-001	0.00000E+000	...........	1558.32
	33	8.78333	7.03634E-001	7.02267E-001	0.00000E+000	...........	1558.32
	34	9.04167	7.03586E-001	7.08193E-001	0.00000E+000	...........	1558.32
	35	9.3	7.03999E-001	7.19889E-001	0.00000E+000	...........	1558.05
	36	9.5583	7.06042E-001	7.19151E-001	0.00000E+000	...........	1557.84
	37	9.8167	7.09809E-001	7.13019E-001	0.00000E+000	...........	1557.84
	38	10.075	7.13654E-001	7.21367E-001	0.00000E+000	...........	1557.84
EOC	QUANT	0.7136537	Open Circuit (V)
PSTATMODEL	IQUANT	64	Pstat Model
PSTATSECTION	LABEL	IFC1010-39067	Pstat Section
PSTATSERIALNO	LABEL	39067	Pstat Serial Number
CTRLMODE	IQUANT	1	Control Mode
ELECTROMETER	IQUANT	0	RE=0 or CS=1
IESTAB	IQUANT	0	I/E Stability
CASPEED	IQUANT	3	Control Amp Speed
CONVENTION	IQUANT	1	Current Convention
ICHRANGE	IQUANT	2	Ich Range
ICHRANGEMODE	TOGGLE	F	Ich Auto Range
ICHOFFSETENABLE	TOGGLE	T	Ich Offset Enable
ICHOFFSET	QUANT	0	Ich Offset (V)
ICHFILTER	IQUANT	4	Ich Filter
VCHRANGE	IQUANT	2	Vch Range
VCHRANGEMODE	TOGGLE	F	Vch Auto Range
VCHOFFSETENABLE	TOGGLE	T	Vch Offset Enable
VCHOFFSET	QUANT	0	Vch Offset (V)
VCHFILTER	IQUANT	4	Vch Filter
IERANGELOWERLIMIT	IQUANT	4	I/E Range Lower Limit
IERANGEMODE	TOGGLE	F	I/E AutoRange
IERANGE	IQUANT	6	I/E Range
ACHSELECT	IQUANT	0	Ach Select
ACHRANGE	IQUANT	2	Ach Range
ACHOFFSETENABLE	TOGGLE	F	Ach Offset Enable
ACHOFFSET	QUANT	0	Ach Offset (V)
ACHFILTER	IQUANT	1	Ach Filter
SENSECABLEID	IQUANT	14	Sense Cable ID
PWRCABLEID	IQUANT	14	Power Cable ID
DCCALDATE	LABEL	11/8/2025	DC Calibration Date
ACCALDATE	LABEL	5/30/2024	AC Calibration Date
FRAMEWORKVERSION	LABEL	7.10.3	Framework Version
INSTRUMENTVERSION	LABEL	4.91	Instrument Version
COMMVERSION	LABEL	3.10	Communications Version
CPUPLDVERSION	LABEL	2.50	CPU PLD Version
CTRLPLDVERSION	LABEL	0.00	CTRL PLD Version
PSTATPLDVERSION	LABEL	0.00	PSTAT PLD Version
ZCURVE	TABLE
	Pt	Time	Freq	Zreal	Zimag	Zsig	Zmod	Zphz	Idc	Vdc	IERange	Imod	Vmod	Temp
	#	s	Hz	ohm	ohm	V	ohm	°	A	V	#	A	V	°C
	0	1	100019.5	10307.37	-24906.78	1	26955.32	-67.51836	-1.41657E-008	0.7137924	8	3.688531E-007	0.0099978	1558.129
	1	3	79511.72	11893.15	-29957.32	1	32231.79	-68.34676	-2.059461E-008	0.7138259	8	3.180312E-007	0.0102925	1558.129
	2	5	63105.47	13790.09	-36034.7	1	38583.24	-69.05869	-1.999924E-008	0.713827	8	2.619307E-007	0.0101352	1557.56
	3	7	50214.84	16086.41	-43212.45	1	46109.53	-69.58154	-1.304167E-008	0.7137887	8	2.182659E-007	0.0100841	1557.56
	4	9	39902.34	18842.72	-52201.94	1	55498.56	-70.15253	-1.366267E-008	0.7137934	8	1.804559E-007	0.0100285	1557.654
	5	10	31699.22	22489.56	-62976.44	1	66871.61	-70.34781	-1.316331E-008	0.7137908	8	1.496269E-007	0.0100147	1558.129
	6	13	25136.72	32813.55	-75684.45	1	82491.61	-66.5605	-3.3511E-009	0.7138021	7	1.187545E-007	0.0100905	1557.464
	7	14	19980.47	37688.47	-90882.78	1	98387.5	-67.47655	-3.319671E-009	0.7138033	7	9.952205E-008	0.0099834	1558.033
	8	16	15878.91	44026.22	-108931.6	1	117492.2	-67.99323	-3.208309E-009	0.7138016	7	8.378728E-008	0.0099709	1558.033
	9	18	12597.66	51874.13	-131193.4	1	141076.7	-68.42606	-6.447539E-010	0.7138203	7	7.024006E-008	0.0099933	1558.033
	10	20	10019.53	61091.15	-157098.8	1	168559.1	-68.7504	-7.121337E-010	0.7138214	7	5.891746E-008	0.0099873	1557.654
	11	22	7928.241	71841.61	-190126.1	1	203246.5	-69.30028	-6.986683E-010	0.7139515	7	4.90843E-008	0.0100137	1557.56
	12	24	6307.871	86716.33	-227105.5	1	243098	-69.10151	-7.788703E-010	0.7139489	7	4.095384E-008	0.0099808	1557.464
	13	26	5034.722	103309.4	-270521.7	1	289576.9	-69.09867	-1.507529E-009	0.7138853	7	3.343494E-008	0.0096899	1557.464
	14	27	3993.056	124540.1	-324053	1	347160.7	-68.97722	-1.499547E-009	0.713887	7	2.930662E-008	0.010178	1558.033
	15	29	3144.055	151039.8	-389080.8	1	417369	-68.78396	-1.684676E-009	0.7138281	7	2.412702E-008	0.0100717	1558.033
	16	31	2519.531	220514.8	-457225.6	1	507623.8	-64.25251	-2.284198E-010	0.7138306	6	1.918674E-008	0.01005	1557.56
	17	33	2000.762	255637.1	-543194.3	1	600341.9	-64.79748	-2.412526E-010	0.7138274	6	1.63122E-008	0.0099984	1557.275
	18	34	1580.669	298370.4	-647767.8	1	713181.6	-65.26858	-1.651359E-010	0.7138292	6	1.383111E-008	0.0100016	1557.939
	19	36	1253.634	347501.1	-770908.3	1	845610.1	-65.73566	-2.051984E-010	0.7138293	6	1.171514E-008	0.0100012	1557.939
[...]
	21	39	790.0281	473845.9	-1089429	1	1188017	-66.49342	-1.661084E-010	0.7138861	6	8.375465E-009	0.0100001	1557.844
	22	41	628.811	556652.3	-1293651	1	1408331	-66.718	-2.129164E-010	0.7138267	6	7.071371E-009	0.0099973	1557.939
	23	43	502.2321	650044.9	-1533210	1	1665321	-67.02421	-1.744909E-010	0.7138289	6	5.732621E-009	0.0096213	1557.56
	24	45	400.1524	756332.9	-1822395	1	1973110	-67.46051	-2.062701E-010	0.7138286	6	5.160209E-009	0.0102363	1557.56
	25	47	315.5048	891340.1	-2179928	1	2355116	-67.76108	-1.560299E-010	0.7138291	6	4.264851E-009	0.0100816	1557.56
	26	48	252.0161	1261535	-2572079	1	2864797	-63.87329	-3.146854E-011	0.7138335	5	3.355578E-009	0.0100483	1558.033
	27	50	200.3205	1429598	-3065364	1	3382338	-64.99701	-2.831017E-011	0.7138347	5	2.858948E-009	0.0099829	1557.844
	28	52	158.0056	1646284	-3685634	1	4036601	-65.93084	-2.502622E-011	0.7138344	5	2.417376E-009	0.0099799	1557.464
	29	53	125.558	1851509	-4432333	1	4803505	-67.32835	-4.552882E-011	0.7138283	5	2.027648E-009	0.0098948	1557.939
	30	55	99.734	2195360	-5327465	1	5762074	-67.60426	-4.321346E-011	0.7138354	5	1.684904E-009	0.0098144	1557.939
	31	57	79.44915	2509802	-6290341	1	6772554	-68.24835	-3.346338E-011	0.7138448	5	1.506509E-009	0.010278	1558.033
	32	59	62.91946	3095996	-1.158034E+007	1	1.198706E+007	-75.03207	-5.118305E-012	0.7138507	5	8.302218E-010	0.0099999	1557.56
	33	60	49.86702	2616843	-9226925	1	9.590829E+006	-74.16617	-1.657709E-011	0.7138447	5	1.039764E-009	0.0100034	1557.56
	34	62	40.0641	4090311	-1.092415E+007	1	1.166481E+007	-69.47268	-2.917346E-011	0.7138507	5	8.554198E-010	0.0099988	1557.939
	35	64	31.6723	5027427	-1.332819E+007	1	1.424485E+007	-69.3334	-3.888737E-011	0.7138436	5	7.010796E-010	0.0099998	1557.939
	36	66	24.93351	5271683	-1.566716E+007	1	1.653029E+007	-71.40295	-1.800876E-011	0.7138454	5	6.044599E-010	0.01	1557.464
	37	68	20.03205	8156429	-1.879954E+007	1	2.049268E+007	-66.54575	-8.591483E-012	0.7138512	4	4.758356E-010	0.0100002	1557.464
	38	70	15.78283	9.55067E+006	-2.248938E+007	1	2.443333E+007	-66.9903	1.092957E-011	0.7138518	4	4.02828E-010	0.01	1557.464
	39	73	12.46675	1.093819E+007	-2.710272E+007	1	2.922672E+007	-68.02184	-3.835075E-012	0.7138461	4	3.387496E-010	0.0100001	1557.844
	40	75	9.9734	1.286061E+007	-3.246377E+007	1	3.491836E+007	-68.38888	-5.764509E-012	0.7138444	4	2.845627E-010	0.0100007	1557.37
	41	78	7.878151	1.592983E+007	-3.983497E+007	1	4.290203E+007	-68.20375	-9.140948E-012	0.7138498	4	2.321213E-010	0.0099988	1557.464
	42	80	6.351626	1.730825E+007	-4.580735E+007	1	4.896824E+007	-69.30099	-4.265288E-012	0.7138442	4	2.036913E-010	0.0100007	1557.464
	43	83	5.013369	2.151518E+007	-5.607227E+007	1	6.005833E+007	-69.00797	-6.553453E-012	0.7138512	4	1.662299E-010	0.0099999	1557.464
	44	86	3.985969	2.568334E+007	-6.741439E+007	1	7.214107E+007	-69.14431	-6.769756E-012	0.7138457	4	1.384741E-010	0.0100001	1557.464
	45	89	3.175813	3.374477E+007	-8.108247E+007	1	8.782412E+007	-67.40398	-9.115374E-013	0.7138445	4	1.137858E-010	0.0099997	1557.464
	46	93	2.516103	3.590978E+007	-9.501208E+007	1	1.015717E+008	-69.29594	-6.673903E-012	0.7138565	4	9.565723E-011	0.0096062	1557.919
	47	97	1.99553	4.320154E+007	-1.149577E+008	1	1.228073E+008	-69.40359	-6.764636E-012	0.7138571	4	8.383799E-011	0.0102217	1558.033
	48	101	1.583615	5.28336E+007	-1.371383E+008	1	1.469636E+008	-68.93044	-6.295148E-012	0.7138486	4	6.900461E-011	0.0100952	1558.033
	49	107	1.258052	6.24136E+007	-1.65294E+008	1	1.766849E+008	-69.31389	-7.449838E-012	0.7138571	4	5.699835E-011	0.010042	1558.033
	50	117	0.997765	7.854598E+007	-2.034543E+008	1	2.180897E+008	-68.89031	-6.738798E-012	0.7138573	4	4.602519E-011	0.0100197	1558.129