Folder: NHPflex2025/figures/Figure 1/EIS data (part 39)

File: 1123 NHP wafer P9e21b.DTA
EXPLAIN
TAG	EISPOT
TITLE	LABEL	Potentiostatic EIS	Test &Identifier
DATE	LABEL	11/23/2025	Date
TIME	LABEL	18:00:39	Time
NOTES	NOTES	1	&Notes...

PSTAT	PSTAT	IFC1010-39067	Potentiostat
VDC	POTEN	0.00000E+000	T	DC &Voltage (V)
FREQINIT	QUANT	1.00000E+005	Initial Fre&q. (Hz)
FREQFINAL	QUANT	1.00000E+000	Final Fre&q. (Hz)
PTSPERDEC	QUANT	1.00000E+001	Points/&decade
VAC	QUANT	1.00000E+001	AC &Voltage (mV rms)
AREA	QUANT	2.00000E-001	&Area (cm^2)
CONDIT	TWOPARAM	F	1.50000E+001	0.00000E+000	Conditionin&g	Time(s)	E(V)
DELAY	TWOPARAM	F	1.00000E+002	0.00000E+000	Init. De&lay	Time(s)	Stab.(mV/s)
SPEED	SELECTOR	1	&Optimize for:
THD	SELECTOR	0	T&HD
DRIFTCOR	SELECTOR	0	&Drift Correction
ZGUESS	QUANT	1.00000E+006	E&stimated Z (ohms)
OCVCURVE	TABLE	39
	Pt	T	Vf	Vm	Ach	Over	Temp
	#	s	V vs. Ref.	V	V	bits	deg C
	0	0.258333	6.97950E-001	6.97950E-001	0.00000E+000	...........	1559.65
	1	0.516667	6.97517E-001	6.75323E-001	0.00000E+000	...........	1559.65
	2	0.775	6.95142E-001	6.68483E-001	0.00000E+000	...........	1559.65
	3	1.03333	6.89834E-001	6.87238E-001	0.00000E+000	...........	1559.65
	4	1.29167	6.83403E-001	6.61219E-001	0.00000E+000	...........	1559.65
	5	1.55	6.77446E-001	6.32338E-001	0.00000E+000	...........	1558.41
	6	1.80833	6.68147E-001	5.47459E-001	0.00000E+000	...........	1558.41
	7	2.06667	6.49307E-001	5.89714E-001	0.00000E+000	...........	1558.41
	8	2.325	6.22595E-001	5.79065E-001	0.00000E+000	...........	1558.19
	9	2.58333	5.99202E-001	6.14443E-001	0.00000E+000	...........	1558.03
	10	2.84167	5.88942E-001	6.26181E-001	0.00000E+000	...........	1558.03
	11	3.1	5.93225E-001	6.58062E-001	0.00000E+000	...........	1558.03
	12	3.35833	6.07675E-001	6.53720E-001	0.00000E+000	...........	1558.32
	13	3.61667	6.25648E-001	6.51061E-001	0.00000E+000	...........	1558.32
	14	3.875	6.40304E-001	6.36485E-001	0.00000E+000	...........	1558.32
	15	4.13333	6.48283E-001	6.84592E-001	0.00000E+000	...........	1558.32
	16	4.39167	6.53120E-001	7.00793E-001	0.00000E+000	...........	1558.41
	17	4.65	6.61279E-001	6.91094E-001	0.00000E+000	...........	1558.41
	18	4.90833	6.73346E-001	6.85359E-001	0.00000E+000	...........	1558.41
	19	5.16667	6.83821E-001	6.92210E-001	0.00000E+000	...........	1558.41
	20	5.425	6.89133E-001	6.88587E-001	0.00000E+000	...........	1558.41
	21	5.68333	6.90528E-001	6.91774E-001	0.00000E+000	...........	1558.41
	22	5.94167	6.90614E-001	6.94805E-001	0.00000E+000	...........	1558.41
	23	6.2	6.91041E-001	6.98730E-001	0.00000E+000	...........	1558.41
	24	6.45833	6.92330E-001	6.92607E-001	0.00000E+000	...........	1558.41
	25	6.71667	6.93776E-001	6.88948E-001	0.00000E+000	...........	1558.41
	26	6.975	6.93817E-001	6.73637E-001	0.00000E+000	...........	1558.41
	27	7.23333	6.91522E-001	6.92811E-001	0.00000E+000	...........	1558.41
	28	7.49167	6.88256E-001	6.90412E-001	0.00000E+000	...........	1558.41
	29	7.75	6.86697E-001	6.94941E-001	0.00000E+000	...........	1558.41
	30	8.00833	6.87749E-001	6.91833E-001	0.00000E+000	...........	1558.41
	31	8.26667	6.89972E-001	6.92560E-001	0.00000E+000	...........	1558.41
	32	8.525	6.91802E-001	6.96314E-001	0.00000E+000	...........	1558.41
	33	8.78333	6.93081E-001	7.02028E-001	0.00000E+000	...........	1558.41
	34	9.04167	6.94759E-001	7.08034E-001	0.00000E+000	...........	1558.41
	35	9.3	6.97670E-001	7.10930E-001	0.00000E+000	...........	1558.37
	36	9.5583	7.01723E-001	7.14743E-001	0.00000E+000	...........	1558.03
	37	9.8167	7.06164E-001	7.17375E-001	0.00000E+000	...........	1558.03
	38	10.075	7.10316E-001	7.20048E-001	0.00000E+000	...........	1558.03
EOC	QUANT	0.7103164	Open Circuit (V)
PSTATMODEL	IQUANT	64	Pstat Model
PSTATSECTION	LABEL	IFC1010-39067	Pstat Section
PSTATSERIALNO	LABEL	39067	Pstat Serial Number
CTRLMODE	IQUANT	1	Control Mode
ELECTROMETER	IQUANT	0	RE=0 or CS=1
IESTAB	IQUANT	0	I/E Stability
CASPEED	IQUANT	3	Control Amp Speed
CONVENTION	IQUANT	1	Current Convention
ICHRANGE	IQUANT	2	Ich Range
ICHRANGEMODE	TOGGLE	F	Ich Auto Range
ICHOFFSETENABLE	TOGGLE	T	Ich Offset Enable
ICHOFFSET	QUANT	0	Ich Offset (V)
ICHFILTER	IQUANT	4	Ich Filter
VCHRANGE	IQUANT	2	Vch Range
VCHRANGEMODE	TOGGLE	F	Vch Auto Range
VCHOFFSETENABLE	TOGGLE	T	Vch Offset Enable
VCHOFFSET	QUANT	0	Vch Offset (V)
VCHFILTER	IQUANT	4	Vch Filter
IERANGELOWERLIMIT	IQUANT	4	I/E Range Lower Limit
IERANGEMODE	TOGGLE	F	I/E AutoRange
IERANGE	IQUANT	6	I/E Range
ACHSELECT	IQUANT	0	Ach Select
ACHRANGE	IQUANT	2	Ach Range
ACHOFFSETENABLE	TOGGLE	F	Ach Offset Enable
ACHOFFSET	QUANT	0	Ach Offset (V)
ACHFILTER	IQUANT	1	Ach Filter
SENSECABLEID	IQUANT	14	Sense Cable ID
PWRCABLEID	IQUANT	14	Power Cable ID
DCCALDATE	LABEL	11/8/2025	DC Calibration Date
ACCALDATE	LABEL	5/30/2024	AC Calibration Date
FRAMEWORKVERSION	LABEL	7.10.3	Framework Version
INSTRUMENTVERSION	LABEL	4.91	Instrument Version
COMMVERSION	LABEL	3.10	Communications Version
CPUPLDVERSION	LABEL	2.50	CPU PLD Version
CTRLPLDVERSION	LABEL	0.00	CTRL PLD Version
PSTATPLDVERSION	LABEL	0.00	PSTAT PLD Version
ZCURVE	TABLE
	Pt	Time	Freq	Zreal	Zimag	Zsig	Zmod	Zphz	Idc	Vdc	IERange	Imod	Vmod	Temp
	#	s	Hz	ohm	ohm	V	ohm	°	A	V	#	A	V	°C
	0	1	100019.5	9883.46	-32944.22	1	34394.83	-73.30045	-2.999628E-008	0.7103228	8	2.890249E-007	0.0099962	1557.654
	1	2	79511.72	11616.23	-39854.81	1	41513.16	-73.75051	-2.221406E-008	0.7102816	8	2.468279E-007	0.0102884	1558.318
	2	4	63105.47	14221.64	-48568.16	1	50607.53	-73.67901	-2.305796E-008	0.7102823	8	1.996116E-007	0.0101309	1557.749
	3	5	50214.84	16669.88	-58536.03	1	60863.38	-74.10412	-2.972263E-008	0.7103196	8	1.652852E-007	0.0100798	1558.224
	4	7	39902.34	20527.84	-71050.69	1	73956.7	-73.88503	-2.912119E-008	0.7103187	8	1.353661E-007	0.0100247	1557.844
	5	9	31699.22	24590.56	-86331.18	1	89765.07	-74.10094	-2.899077E-008	0.7103201	8	1.118014E-007	0.0100448	1558.224
	6	11	25136.72	39484.02	-104654.7	1	111855.3	-69.32957	-4.409633E-009	0.7102966	7	8.717173E-008	0.0100435	1558.033
	7	13	19980.47	46616.31	-125857.7	1	134213.4	-69.67593	-1.484321E-009	0.7103101	7	7.30824E-008	0.0100007	1557.56
	8	14	15878.91	54791.05	-151285.5	1	160901.7	-70.09113	-2.062436E-009	0.7103158	7	6.134268E-008	0.009997	1558.224
	9	16	12597.66	68198.78	-182934.7	1	195233.6	-69.55434	-4.5238E-009	0.7102964	7	5.072958E-008	0.0099881	1557.654
	10	17	10019.53	82478.71	-218898.5	1	233921.6	-69.35411	-1.124124E-009	0.7103137	7	4.24354E-008	0.0099828	1558.224
	11	19	7928.241	99776.4	-262071	1	280422.1	-69.15703	-1.185374E-009	0.7104405	7	3.557004E-008	0.0100121	1558.318
	12	21	6307.871	121721.7	-311257.2	1	334211.3	-68.64129	-1.161777E-009	0.7104391	7	2.977665E-008	0.0099766	1557.654
	13	22	5034.722	145987.3	-371005.6	1	398694.7	-68.52082	-2.039209E-009	0.7103757	7	2.428255E-008	0.0096893	1558.318
	14	24	3993.056	177670.2	-440648.9	1	475119.1	-68.04064	-2.078659E-009	0.7103781	7	2.141325E-008	0.0101777	1557.56
	15	25	3144.055	216714.6	-525523.3	1	568454	-67.58979	-2.203126E-009	0.7103205	7	1.776807E-008	0.0101022	1558.224
	16	27	2519.531	315041	-611204.4	1	687620.3	-62.73148	-2.566666E-010	0.7103201	6	1.411626E-008	0.0100159	1557.464
	17	28	2000.762	364902.6	-719830.3	1	807037.5	-63.11825	-2.306635E-010	0.7103203	6	1.216958E-008	0.0100274	1558.033
	18	30	1580.669	424413.1	-852148.1	1	951989	-63.52436	-2.353671E-010	0.7103207	6	1.036054E-008	0.0100006	1557.464
	19	31	1253.634	493505.9	-1006666	1	1121126	-63.88415	-2.259609E-010	0.7103209	6	8.836165E-009	0.0100012	1558.033
[...]
	21	34	790.0281	667675.4	-1406934	1	1557323	-64.61283	-1.63255E-010	0.7103798	6	6.388759E-009	0.0099993	1558.033
	22	36	628.811	773221.4	-1660462	1	1831668	-65.03019	-2.199422E-010	0.7103192	6	5.436794E-009	0.0099969	1557.56
	23	37	502.2321	895380.4	-1955295	1	2150555	-65.39573	-2.412892E-010	0.7103194	6	4.438815E-009	0.0096206	1558.129
	24	39	400.1524	1039298	-2314649	1	2537270	-65.81948	-2.149864E-010	0.7103193	6	4.012861E-009	0.0102364	1557.749
	25	40	315.5048	1203808	-2762885	1	3013749	-66.45691	-2.170393E-010	0.7103207	6	3.332971E-009	0.0100821	1558.318
	26	42	252.0161	1654815	-3249756	1	3646824	-63.01426	-3.395893E-011	0.7103264	5	2.628014E-009	0.0100178	1557.654
	27	43	200.3205	1884360	-3866207	1	4300972	-64.01575	-2.822374E-011	0.7103268	5	2.255286E-009	0.0100139	1558.129
	28	45	158.0056	2136487	-4632877	1	5101777	-65.24284	-2.616754E-011	0.7103258	5	1.906754E-009	0.0099491	1557.56
	29	46	125.558	2449124	-5496217	1	6017192	-65.98216	-2.942952E-011	0.7103211	5	1.623338E-009	0.0099234	1558.129
	30	48	99.734	2806947	-6715705	1	7278712	-67.31665	-2.989904E-011	0.7103259	5	1.329233E-009	0.0097806	1557.654
	31	49	79.44915	3184736	-7984844	1	8596527	-68.25553	-3.253968E-011	0.7103372	5	1.18944E-009	0.0103003	1558.129
	32	51	62.91946	4829361	-7639182	1	9037689	-57.69962	-2.917227E-011	0.7103415	5	1.101376E-009	0.0100019	1558.129
	33	53	49.86702	5184964	-1.191875E+007	1	1.299771E+007	-66.48972	-3.906612E-011	0.7103379	5	7.670896E-010	0.0100016	1557.654
	34	54	40.0641	4958610	-1.379757E+007	1	1.466154E+007	-70.23243	-2.665438E-011	0.7103422	5	6.806306E-010	0.0099996	1558.129
	35	56	31.6723	6160032	-1.686657E+007	1	1.795626E+007	-69.93673	-3.23976E-011	0.7103382	5	5.562125E-010	0.0100005	1557.844
	36	58	24.93351	8768581	-2.02991E+007	1	2.211202E+007	-66.63716	-6.660479E-012	0.7103389	4	4.35227E-010	0.0099994	1557.654
	37	60	20.03205	1.001528E+007	-2.424694E+007	1	2.623395E+007	-67.55676	-6.051676E-012	0.7103438	4	3.716999E-010	0.0100002	1557.654
	38	62	15.78283	1.160242E+007	-2.932836E+007	1	3.153995E+007	-68.41604	-5.819907E-012	0.7103429	4	3.12055E-010	0.0099998	1557.654
	39	63	12.46675	1.402334E+007	-3.562836E+007	1	3.828883E+007	-68.51537	5.409145E-012	0.7103379	4	2.585815E-010	0.0100004	1557.654
	40	65	9.9734	1.590267E+007	-4.250744E+007	1	4.538478E+007	-69.48843	-2.770446E-012	0.7103388	4	2.189379E-010	0.0100007	1557.654
	41	68	7.878151	1.966839E+007	-5.181373E+007	1	5.542119E+007	-69.21333	-5.603629E-012	0.7103437	4	1.796895E-010	0.0099989	1558.033
	42	70	6.351626	2.32193E+007	-6.145196E+007	1	6.569231E+007	-69.30119	-5.566791E-012	0.7103378	4	1.518288E-010	0.0100003	1557.654
	43	73	5.013369	2.838664E+007	-7.427756E+007	1	7.951702E+007	-69.08465	-5.827371E-012	0.7103433	4	1.255534E-010	0.01	1557.56
	44	76	3.985969	3.497276E+007	-8.56793E+007	1	9.254208E+007	-67.7956	1.167871E-012	0.7103373	4	1.079471E-010	0.01	1558.033
	45	79	3.175813	4.043664E+007	-1.04531E+008	1	1.120796E+008	-68.85159	-4.369567E-012	0.7103372	4	8.916184E-011	0.0099998	1557.56
	46	83	2.516103	5.135055E+007	-1.258564E+008	1	1.35929E+008	-67.80409	-4.975012E-012	0.7103487	4	7.147883E-011	0.0096061	1557.654
	47	87	1.99553	6.362469E+007	-1.497832E+008	1	1.627363E+008	-66.98525	-6.189762E-012	0.7103491	4	6.326673E-011	0.0102216	1557.654
	48	91	1.583615	-1.824061E+007	-1.597885E+008	1	1.608262E+008	-96.5124	6.031049E-012	0.71034	4	6.305855E-011	0.0100955	1557.896
	49	99	1.258052	9.790078E+007	-2.090909E+008	1	2.308756E+008	-64.91001	-6.515879E-012	0.7103481	4	4.361939E-011	0.010042	1558.318
	50	107	0.997765	1.215065E+008	-2.453194E+008	1	2.737616E+008	-63.65082	-6.535055E-012	0.7103494	4	3.666533E-011	0.0100196	1557.749

File: 1123 NHP wafer P9e21c.DTA
EXPLAIN
TAG	EISPOT
TITLE	LABEL	Potentiostatic EIS	Test &Identifier
DATE	LABEL	11/23/2025	Date
TIME	LABEL	18:02:53	Time
NOTES	NOTES	1	&Notes...

PSTAT	PSTAT	IFC1010-39067	Potentiostat
VDC	POTEN	0.00000E+000	T	DC &Voltage (V)
FREQINIT	QUANT	1.00000E+005	Initial Fre&q. (Hz)
FREQFINAL	QUANT	1.00000E+000	Final Fre&q. (Hz)
PTSPERDEC	QUANT	1.00000E+001	Points/&decade
VAC	QUANT	1.00000E+001	AC &Voltage (mV rms)
AREA	QUANT	2.00000E-001	&Area (cm^2)
CONDIT	TWOPARAM	F	1.50000E+001	0.00000E+000	Conditionin&g	Time(s)	E(V)
DELAY	TWOPARAM	F	1.00000E+002	0.00000E+000	Init. De&lay	Time(s)	Stab.(mV/s)
SPEED	SELECTOR	1	&Optimize for:
THD	SELECTOR	0	T&HD
DRIFTCOR	SELECTOR	0	&Drift Correction
ZGUESS	QUANT	1.00000E+006	E&stimated Z (ohms)
OCVCURVE	TABLE	39
	Pt	T	Vf	Vm	Ach	Over	Temp
	#	s	V vs. Ref.	V	V	bits	deg C
	0	0.258333	7.38357E-001	7.38357E-001	0.00000E+000	...........	1559.65
	1	0.516667	7.38427E-001	7.42052E-001	0.00000E+000	...........	1559.65
	2	0.775	7.38937E-001	7.49532E-001	0.00000E+000	...........	1559.65
	3	1.03333	7.41034E-001	7.77817E-001	0.00000E+000	...........	1558.41
	4	1.29167	7.45936E-001	7.47470E-001	0.00000E+000	...........	1558.41
	5	1.55	7.51948E-001	7.41353E-001	0.00000E+000	...........	1558.41
	6	1.80833	7.54581E-001	7.38608E-001	0.00000E+000	...........	1558.41
	7	2.06667	7.51962E-001	7.40559E-001	0.00000E+000	...........	1558.41
	8	2.325	7.46848E-001	7.39694E-001	0.00000E+000	...........	1558.41
	9	2.58333	7.42658E-001	7.41319E-001	0.00000E+000	...........	1558.41
	10	2.84167	7.40615E-001	7.41969E-001	0.00000E+000	...........	1558.41
	11	3.1	7.40277E-001	7.42135E-001	0.00000E+000	...........	1558.41
	12	3.35833	7.40781E-001	7.42513E-001	0.00000E+000	...........	1558.41
	13	3.61667	7.41461E-001	7.42519E-001	0.00000E+000	...........	1558.41
	14	3.875	7.41995E-001	7.42414E-001	0.00000E+000	...........	1558.41
	15	4.13333	7.42314E-001	7.42700E-001	0.00000E+000	...........	1558.41
	16	4.39167	7.42475E-001	7.42812E-001	0.00000E+000	...........	1558.41
	17	4.65	7.42575E-001	7.42979E-001	0.00000E+000	...........	1558.41
	18	4.90833	7.42672E-001	7.42587E-001	0.00000E+000	...........	1558.41
	19	5.16667	7.42752E-001	7.42877E-001	0.00000E+000	...........	1558.41
	20	5.425	7.42790E-001	7.42838E-001	0.00000E+000	...........	1558.41
	21	5.68333	7.42809E-001	7.43229E-001	0.00000E+000	...........	1558.41
	22	5.94167	7.42854E-001	7.43013E-001	0.00000E+000	...........	1558.22
	23	6.2	7.42939E-001	7.43357E-001	0.00000E+000	...........	1557.94
	24	6.45833	7.43042E-001	7.43280E-001	0.00000E+000	...........	1557.94
	25	6.71667	7.43148E-001	7.43638E-001	0.00000E+000	...........	1557.94
	26	6.975	7.43258E-001	7.43425E-001	0.00000E+000	...........	1558.32
	27	7.23333	7.43367E-001	7.43727E-001	0.00000E+000	...........	1558.32
	28	7.49167	7.43464E-001	7.43587E-001	0.00000E+000	...........	1558.32
	29	7.75	7.43547E-001	7.43933E-001	0.00000E+000	...........	1558.32
	30	8.00833	7.43626E-001	7.43803E-001	0.00000E+000	...........	1558.32
	31	8.26667	7.43710E-001	7.44038E-001	0.00000E+000	...........	1558.32
	32	8.525	7.43799E-001	7.44060E-001	0.00000E+000	...........	1558.32
	33	8.78333	7.43895E-001	7.44513E-001	0.00000E+000	...........	1558.32
	34	9.04167	7.44018E-001	7.44458E-001	0.00000E+000	...........	1558.41
	35	9.3	7.44173E-001	7.44701E-001	0.00000E+000	...........	1558.41
	36	9.5583	7.44340E-001	7.44730E-001	0.00000E+000	...........	1558.41
	37	9.8167	7.44501E-001	7.45092E-001	0.00000E+000	...........	1558.41
	38	10.075	7.44658E-001	7.45237E-001	0.00000E+000	...........	1558.41
EOC	QUANT	0.7446576	Open Circuit (V)
PSTATMODEL	IQUANT	64	Pstat Model
PSTATSECTION	LABEL	IFC1010-39067	Pstat Section
PSTATSERIALNO	LABEL	39067	Pstat Serial Number
CTRLMODE	IQUANT	1	Control Mode
ELECTROMETER	IQUANT	0	RE=0 or CS=1
IESTAB	IQUANT	0	I/E Stability
CASPEED	IQUANT	3	Control Amp Speed
CONVENTION	IQUANT	1	Current Convention
ICHRANGE	IQUANT	2	Ich Range
ICHRANGEMODE	TOGGLE	F	Ich Auto Range
ICHOFFSETENABLE	TOGGLE	T	Ich Offset Enable
ICHOFFSET	QUANT	0	Ich Offset (V)
ICHFILTER	IQUANT	4	Ich Filter
VCHRANGE	IQUANT	2	Vch Range
VCHRANGEMODE	TOGGLE	F	Vch Auto Range
VCHOFFSETENABLE	TOGGLE	T	Vch Offset Enable
VCHOFFSET	QUANT	0	Vch Offset (V)
VCHFILTER	IQUANT	4	Vch Filter
IERANGELOWERLIMIT	IQUANT	4	I/E Range Lower Limit
IERANGEMODE	TOGGLE	F	I/E AutoRange
IERANGE	IQUANT	6	I/E Range
ACHSELECT	IQUANT	0	Ach Select
ACHRANGE	IQUANT	2	Ach Range
ACHOFFSETENABLE	TOGGLE	F	Ach Offset Enable
ACHOFFSET	QUANT	0	Ach Offset (V)
ACHFILTER	IQUANT	1	Ach Filter
SENSECABLEID	IQUANT	14	Sense Cable ID
PWRCABLEID	IQUANT	14	Power Cable ID
DCCALDATE	LABEL	11/8/2025	DC Calibration Date
ACCALDATE	LABEL	5/30/2024	AC Calibration Date
FRAMEWORKVERSION	LABEL	7.10.3	Framework Version
INSTRUMENTVERSION	LABEL	4.91	Instrument Version
COMMVERSION	LABEL	3.10	Communications Version
CPUPLDVERSION	LABEL	2.50	CPU PLD Version
CTRLPLDVERSION	LABEL	0.00	CTRL PLD Version
PSTATPLDVERSION	LABEL	0.00	PSTAT PLD Version
ZCURVE	TABLE
	Pt	Time	Freq	Zreal	Zimag	Zsig	Zmod	Zphz	Idc	Vdc	IERange	Imod	Vmod	Temp
	#	s	Hz	ohm	ohm	V	ohm	°	A	V	#	A	V	°C
	0	1	100019.5	9950.8	-32787.12	1	34263.88	-73.1171	-2.896198E-008	0.7448152	8	2.901019E-007	0.0099953	1557.844
	1	3	79511.72	11878.78	-39678.71	1	41418.66	-73.33366	-2.175399E-008	0.7447777	8	2.474127E-007	0.0102893	1558.129
	2	4	63105.47	14271.31	-47983.35	1	50060.69	-73.43636	-2.184806E-008	0.7447789	8	2.018038E-007	0.0101315	1558.318
	3	6	50214.84	17491.33	-57865.22	1	60451.05	-73.18114	-3.005863E-008	0.7448176	8	1.664149E-007	0.0100799	1557.654
	4	7	39902.34	20644.22	-70039.91	1	73018.98	-73.57715	-3.055128E-008	0.7448173	8	1.371006E-007	0.0100244	1558.224
	5	9	31699.22	25794.49	-85276.98	1	89092.76	-73.17054	-2.962053E-008	0.7448172	8	1.126361E-007	0.010044	1558.129
	6	11	25136.72	39967.41	-102996.9	1	110479.6	-68.79151	-1.147849E-009	0.744809	7	8.826652E-008	0.0100446	1558.224
	7	13	19980.47	46282.3	-123689.9	1	132065.3	-69.48515	-4.123368E-009	0.7447905	7	7.42901E-008	0.0100032	1557.56
	8	14	15878.91	57414.78	-148777.3	1	159471.4	-68.89786	-1.138068E-009	0.744809	7	6.187977E-008	0.0099949	1558.224
	9	16	12597.66	67149.01	-177530.8	1	189805.7	-69.28145	-1.545329E-009	0.7448099	7	5.219259E-008	0.0099905	1557.749
	10	17	10019.53	82111.28	-212464	1	227778.8	-68.8699	-4.217503E-009	0.7447935	7	4.357956E-008	0.0099827	1558.129
	11	19	7928.241	103489	-253298.7	1	273624.2	-67.77679	-1.670653E-009	0.7449383	7	3.645124E-008	0.0100114	1558.318
	12	21	6307.871	122319	-303841.7	1	327538.8	-68.07153	-9.979614E-010	0.7449363	7	3.039029E-008	0.009979	1557.654
	13	22	5034.722	147056.4	-359361	1	388285.8	-67.74482	-1.972315E-009	0.7448747	7	2.49312E-008	0.0096884	1558.224
	14	24	3993.056	178222.9	-426075.8	1	461848.4	-67.30096	-2.000784E-009	0.7448748	7	2.202727E-008	0.0101771	1557.56
	15	25	3144.055	216559	-507386.3	1	551668.9	-66.88659	-2.153587E-009	0.7448161	7	1.830949E-008	0.0101026	1558.129
	16	27	2519.531	311669.8	-587649.3	1	665184	-62.06	-2.616476E-010	0.7448164	6	1.459363E-008	0.0100168	1557.464
	17	28	2000.762	360054.8	-690910.2	1	779099.7	-62.47458	-2.579421E-010	0.7448158	6	1.260608E-008	0.0100275	1558.033
	18	30	1580.669	417895.4	-817023.8	1	917695.2	-62.91094	-2.278131E-010	0.7448186	6	1.074692E-008	0.0099999	1557.654
	19	31	1253.634	484337.4	-963948	1	1078786	-63.32267	-2.389447E-010	0.7448179	6	9.183908E-009	0.0100022	1558.033
[...]
	21	34	790.0281	649957.2	-1344581	1	1493433	-64.20134	-1.623937E-010	0.7448765	6	6.661897E-009	0.009999	1558.033
	22	36	628.811	754263.9	-1586524	1	1756693	-64.57269	-2.41258E-010	0.7448174	6	5.669461E-009	0.009998	1557.56
	23	37	502.2321	867826.4	-1872685	1	2063994	-65.13639	-2.389858E-010	0.7448177	6	4.624775E-009	0.0096202	1558.129
	24	39	400.1524	1003662	-2219295	1	2435694	-65.66543	-2.214467E-010	0.7448179	6	4.180034E-009	0.0102359	1557.654
	25	40	315.5048	1168154	-2647604	1	2893854	-66.19237	-2.385136E-010	0.7448171	6	3.470936E-009	0.0100817	1558.318
	26	42	252.0161	1598721	-3118404	1	3504333	-62.85703	-2.185149E-011	0.7448221	5	2.734621E-009	0.0100169	1557.56
	27	43	200.3205	1809079	-3687827	1	4107655	-63.86955	-2.694532E-011	0.7448237	5	2.361411E-009	0.0100138	1558.129
	28	45	158.0056	2057072	-4445774	1	4898617	-65.16988	-2.602693E-011	0.7448218	5	1.98573E-009	0.0099485	1557.56
	29	46	125.558	2329771	-5299542	1	5789039	-66.26888	-2.542458E-011	0.7448164	5	1.687419E-009	0.009924	1558.129
	30	48	99.734	2667666	-6387332	1	6922027	-67.33218	-2.459338E-011	0.744823	5	1.397644E-009	0.00978	1557.56
	31	49	79.44915	3081670	-7599131	1	8200212	-67.926	-2.429849E-011	0.7448322	5	1.246583E-009	0.0102975	1558.129
	32	51	62.91946	2373001	-1.181727E+007	1	1.205317E+007	-78.64556	-2.131805E-011	0.7448394	5	8.256459E-010	0.0099997	1557.654
	33	52	49.86702	3458625	-1.130971E+007	1	1.182673E+007	-72.99583	-2.210706E-011	0.7448351	5	8.431665E-010	0.0100031	1558.129
	34	54	40.0641	4796758	-1.329225E+007	1	1.413127E+007	-70.15707	-2.712143E-011	0.7448394	5	7.061731E-010	0.0099996	1557.654
	35	55	31.6723	5475335	-1.598412E+007	1	1.68959E+007	-71.09119	-2.32326E-011	0.7448347	5	5.910872E-010	0.01	1557.654
	36	57	24.93351	8472344	-1.925379E+007	1	2.103542E+007	-66.24882	-4.014368E-012	0.7448347	4	4.575057E-010	0.0099995	1557.56
	37	59	20.03205	9.58656E+006	-2.321581E+007	1	2.511725E+007	-67.56269	-4.603833E-012	0.7448394	4	3.882493E-010	0.0100008	1558.033
	38	61	15.78283	1.149993E+007	-2.827242E+007	1	3.052177E+007	-67.86576	-7.363912E-012	0.7448387	4	3.224405E-010	0.0099991	1557.654
	39	63	12.46675	1.278457E+007	-3.380677E+007	1	3.614336E+007	-69.2851	-2.102969E-012	0.7448333	4	2.739284E-010	0.0100003	1557.766
	40	65	9.9734	1.517934E+007	-4.059549E+007	1	4.334058E+007	-69.49838	-3.04957E-012	0.7448338	4	2.29252E-010	0.0100001	1557.56
	41	67	7.878151	1.826226E+007	-4.933636E+007	1	5.260785E+007	-69.68755	-4.245792E-012	0.7448388	4	1.893125E-010	0.0099996	1557.56
	42	70	6.351626	2.235871E+007	-5.912788E+007	1	6.321406E+007	-69.28632	-5.352851E-012	0.7448331	4	1.577783E-010	0.0100001	1557.56
	43	72	5.013369	2.593692E+007	-7.020564E+007	1	7.484354E+007	-69.72365	-2.770279E-012	0.7448385	4	1.33398E-010	0.0100004	1557.56
	44	75	3.985969	3.252215E+007	-8.483785E+007	1	9.085786E+007	-69.02593	-3.932253E-012	0.7448339	4	1.099412E-010	0.0099994	1557.56
	45	79	3.175813	4.077588E+007	-1.022929E+008	1	1.101204E+008	-68.26685	-5.219579E-012	0.744834	4	9.074937E-011	0.01	1557.56
	46	83	2.516103	4.93758E+007	-1.210992E+008	1	1.307784E+008	-67.8178	-4.535027E-012	0.7448457	4	7.429574E-011	0.0096064	1558.129
	47	86	1.99553	6.128452E+007	-1.440736E+008	1	1.565663E+008	-66.95658	-4.242011E-012	0.7448458	4	6.576171E-011	0.0102218	1558.129
	48	91	1.583615	7.584183E+007	-1.704087E+008	1	1.865238E+008	-66.00814	-4.524847E-012	0.7448363	4	5.436995E-011	0.0100953	1557.749
	49	97	1.258052	9.399669E+007	-2.007287E+008	1	2.21647E+008	-64.90738	-5.037181E-012	0.7448457	4	4.543426E-011	0.0100417	1557.749
	50	102	0.997765	1.157995E+008	-2.345705E+008	1	2.615967E+008	-63.72602	-4.497859E-012	0.7448447	4	3.83691E-011	0.0100193	1558.224