Folder: NHPflex2025/figures/Figure 1/EIS data (part 44)

File: 1123 NHP wafer P9e26c.DTA
EXPLAIN
TAG	EISPOT
TITLE	LABEL	Potentiostatic EIS	Test &Identifier
DATE	LABEL	11/23/2025	Date
TIME	LABEL	17:26:23	Time
NOTES	NOTES	1	&Notes...

PSTAT	PSTAT	IFC1010-39067	Potentiostat
VDC	POTEN	0.00000E+000	T	DC &Voltage (V)
FREQINIT	QUANT	1.00000E+005	Initial Fre&q. (Hz)
FREQFINAL	QUANT	1.00000E+000	Final Fre&q. (Hz)
PTSPERDEC	QUANT	1.00000E+001	Points/&decade
VAC	QUANT	1.00000E+001	AC &Voltage (mV rms)
AREA	QUANT	2.00000E-001	&Area (cm^2)
CONDIT	TWOPARAM	F	1.50000E+001	0.00000E+000	Conditionin&g	Time(s)	E(V)
DELAY	TWOPARAM	F	1.00000E+002	0.00000E+000	Init. De&lay	Time(s)	Stab.(mV/s)
SPEED	SELECTOR	1	&Optimize for:
THD	SELECTOR	0	T&HD
DRIFTCOR	SELECTOR	0	&Drift Correction
ZGUESS	QUANT	1.00000E+006	E&stimated Z (ohms)
OCVCURVE	TABLE	39
	Pt	T	Vf	Vm	Ach	Over	Temp
	#	s	V vs. Ref.	V	V	bits	deg C
	0	0.258333	6.57220E-001	6.57220E-001	0.00000E+000	...........	1559.55
	1	0.516667	6.57240E-001	6.58255E-001	0.00000E+000	...........	1559.55
	2	0.775	6.57484E-001	6.65655E-001	0.00000E+000	...........	1559.55
	3	1.03333	6.58253E-001	6.55533E-001	0.00000E+000	...........	1559.55
	4	1.29167	6.59101E-001	6.52020E-001	0.00000E+000	...........	1558.32
	5	1.55	6.58826E-001	6.52956E-001	0.00000E+000	...........	1558.32
	6	1.80833	6.57120E-001	6.53392E-001	0.00000E+000	...........	1558.32
	7	2.06667	6.55092E-001	6.54116E-001	0.00000E+000	...........	1558.32
	8	2.325	6.53897E-001	6.57591E-001	0.00000E+000	...........	1558.41
	9	2.58333	6.53885E-001	6.56777E-001	0.00000E+000	...........	1558.41
	10	2.84167	6.54719E-001	6.56221E-001	0.00000E+000	...........	1558.41
	11	3.1	6.55714E-001	6.57140E-001	0.00000E+000	...........	1558.41
	12	3.35833	6.56405E-001	6.57828E-001	0.00000E+000	...........	1558.32
	13	3.61667	6.56835E-001	6.58320E-001	0.00000E+000	...........	1558.32
	14	3.875	6.57243E-001	6.58905E-001	0.00000E+000	...........	1558.32
	15	4.13333	6.57727E-001	6.59291E-001	0.00000E+000	...........	1558.32
	16	4.39167	6.58257E-001	6.59864E-001	0.00000E+000	...........	1558.32
	17	4.65	6.58786E-001	6.60293E-001	0.00000E+000	...........	1558.32
	18	4.90833	6.59295E-001	6.60747E-001	0.00000E+000	...........	1558.32
	19	5.16667	6.59783E-001	6.61175E-001	0.00000E+000	...........	1558.17
	20	5.425	6.60254E-001	6.61789E-001	0.00000E+000	...........	1558.13
	21	5.68333	6.60721E-001	6.62121E-001	0.00000E+000	...........	1558.13
	22	5.94167	6.61192E-001	6.62583E-001	0.00000E+000	...........	1558.13
	23	6.2	6.61651E-001	6.62705E-001	0.00000E+000	...........	1558.32
	24	6.45833	6.62073E-001	6.63213E-001	0.00000E+000	...........	1558.32
	25	6.71667	6.62449E-001	6.63500E-001	0.00000E+000	...........	1558.32
	26	6.975	6.62800E-001	6.63989E-001	0.00000E+000	...........	1558.32
	27	7.23333	6.63150E-001	6.64003E-001	0.00000E+000	...........	1558.32
	28	7.49167	6.63490E-001	6.64331E-001	0.00000E+000	...........	1558.32
	29	7.75	6.63793E-001	6.64502E-001	0.00000E+000	...........	1558.32
	30	8.00833	6.64057E-001	6.64957E-001	0.00000E+000	...........	1558.32
	31	8.26667	6.64305E-001	6.64931E-001	0.00000E+000	...........	1558.32
	32	8.525	6.64550E-001	6.65224E-001	0.00000E+000	...........	1558.32
	33	8.78333	6.64779E-001	6.65260E-001	0.00000E+000	...........	1558.32
	34	9.04167	6.64981E-001	6.65731E-001	0.00000E+000	...........	1558.32
	35	9.3	6.65174E-001	6.65792E-001	0.00000E+000	...........	1558.32
	36	9.5583	6.65381E-001	6.66137E-001	0.00000E+000	...........	1558.32
	37	9.8167	6.65602E-001	6.66104E-001	0.00000E+000	...........	1558.32
	38	10.075	6.65818E-001	6.66513E-001	0.00000E+000	...........	1558.32
EOC	QUANT	0.6658178	Open Circuit (V)
PSTATMODEL	IQUANT	64	Pstat Model
PSTATSECTION	LABEL	IFC1010-39067	Pstat Section
PSTATSERIALNO	LABEL	39067	Pstat Serial Number
CTRLMODE	IQUANT	1	Control Mode
ELECTROMETER	IQUANT	0	RE=0 or CS=1
IESTAB	IQUANT	0	I/E Stability
CASPEED	IQUANT	3	Control Amp Speed
CONVENTION	IQUANT	1	Current Convention
ICHRANGE	IQUANT	2	Ich Range
ICHRANGEMODE	TOGGLE	F	Ich Auto Range
ICHOFFSETENABLE	TOGGLE	T	Ich Offset Enable
ICHOFFSET	QUANT	0	Ich Offset (V)
ICHFILTER	IQUANT	4	Ich Filter
VCHRANGE	IQUANT	2	Vch Range
VCHRANGEMODE	TOGGLE	F	Vch Auto Range
VCHOFFSETENABLE	TOGGLE	T	Vch Offset Enable
VCHOFFSET	QUANT	0	Vch Offset (V)
VCHFILTER	IQUANT	4	Vch Filter
IERANGELOWERLIMIT	IQUANT	4	I/E Range Lower Limit
IERANGEMODE	TOGGLE	F	I/E AutoRange
IERANGE	IQUANT	6	I/E Range
ACHSELECT	IQUANT	0	Ach Select
ACHRANGE	IQUANT	2	Ach Range
ACHOFFSETENABLE	TOGGLE	F	Ach Offset Enable
ACHOFFSET	QUANT	0	Ach Offset (V)
ACHFILTER	IQUANT	1	Ach Filter
SENSECABLEID	IQUANT	14	Sense Cable ID
PWRCABLEID	IQUANT	14	Power Cable ID
DCCALDATE	LABEL	11/8/2025	DC Calibration Date
ACCALDATE	LABEL	5/30/2024	AC Calibration Date
FRAMEWORKVERSION	LABEL	7.10.3	Framework Version
INSTRUMENTVERSION	LABEL	4.91	Instrument Version
COMMVERSION	LABEL	3.10	Communications Version
CPUPLDVERSION	LABEL	2.50	CPU PLD Version
CTRLPLDVERSION	LABEL	0.00	CTRL PLD Version
PSTATPLDVERSION	LABEL	0.00	PSTAT PLD Version
ZCURVE	TABLE
	Pt	Time	Freq	Zreal	Zimag	Zsig	Zmod	Zphz	Idc	Vdc	IERange	Imod	Vmod	Temp
	#	s	Hz	ohm	ohm	V	ohm	°	A	V	#	A	V	°C
	0	1	100019.5	10416.62	-30078.04	1	31830.72	-70.89803	-2.749809E-008	0.6658461	8	3.123202E-007	0.0099966	1557.654
	1	2	79511.72	12524.03	-36129.57	1	38238.69	-70.88153	-1.869675E-008	0.6658068	8	2.680038E-007	0.0102899	1558.129
	2	4	63105.47	15203.98	-43146.48	1	45746.91	-70.58853	-1.941142E-008	0.6658045	8	2.208165E-007	0.0101307	1558.224
	3	6	50214.84	18036.45	-52124.66	1	55156.99	-70.91309	-1.858598E-008	0.6658047	8	1.824079E-007	0.0100811	1557.749
	4	7	39902.34	21505.95	-62141.18	1	65757.38	-70.91019	-2.568316E-008	0.6658443	8	1.52254E-007	0.0100253	1558.224
	5	9	31699.22	26241.09	-74894.48	1	79358.54	-70.69086	-2.560996E-008	0.665844	8	1.264685E-007	0.0100453	1557.654
	6	11	25136.72	38628.94	-89604.34	1	97576.3	-66.67885	-3.668223E-009	0.6658194	7	9.998349E-008	0.0100491	1557.464
	7	12	19980.47	45003.27	-107075.6	1	116148.5	-67.20325	-1.207184E-009	0.6658364	7	8.423575E-008	0.0099754	1558.129
	8	14	15878.91	52230.62	-127815.3	1	138075.3	-67.77303	-9.685553E-010	0.6658334	7	7.147209E-008	0.0099954	1557.56
	9	15	12597.66	61693.86	-153704.7	1	165623.8	-68.1305	-3.874651E-009	0.665816	7	5.981177E-008	0.0099903	1558.033
	10	17	10019.53	72455.73	-184645.4	1	198352.6	-68.57472	-3.765754E-009	0.6658175	7	5.022723E-008	0.0100191	1558.033
	11	19	7928.241	86950.82	-220966.5	1	237458.7	-68.52025	-1.121242E-009	0.6659657	7	4.187884E-008	0.0099818	1557.654
	12	20	6307.871	101205.7	-266885.6	1	285430.4	-69.23277	-9.745654E-010	0.6659648	7	3.498208E-008	0.01001	1558.224
	13	22	5034.722	123360.8	-316209.7	1	339420.8	-68.68809	-1.96613E-009	0.665902	7	2.843553E-008	0.0096595	1558.129
	14	23	3993.056	148737.9	-378152.8	1	406352.6	-68.52892	-2.013857E-009	0.6659022	7	2.511362E-008	0.0102089	1558.033
	15	25	3144.055	180714.7	-453572.4	1	488247.6	-68.27642	-2.207356E-009	0.6658445	7	2.062333E-008	0.0100712	1557.749
	16	27	2519.531	264225.2	-532508.5	1	594457.9	-63.60987	-2.635479E-010	0.6658431	6	1.638215E-008	0.0100488	1557.939
	17	28	2000.762	308118.5	-632418.9	1	703484.7	-64.02437	-2.401462E-010	0.665845	6	1.391911E-008	0.0099974	1557.749
	18	30	1580.669	363042.1	-753866.3	1	836728.1	-64.28576	-2.381797E-010	0.6658459	6	1.178723E-008	0.0100002	1557.37
	19	31	1253.634	430075.4	-895138.1	1	993095	-64.33772	-2.291108E-010	0.6658456	6	9.975291E-009	0.0100012	1558.033
[...]
	21	34	790.0281	610409.8	-1255263	1	1395810	-64.06725	-2.241925E-010	0.6659027	6	7.127928E-009	0.0099991	1558.033
	22	36	628.811	730495.2	-1476108	1	1646973	-63.67015	-2.280235E-010	0.6658447	6	6.046437E-009	0.0099968	1557.37
	23	37	502.2321	873319.2	-1728553	1	1936642	-63.19566	-2.28154E-010	0.665843	6	4.928956E-009	0.0096203	1558.033
	24	39	400.1524	1048900	-2027190	1	2282475	-62.64225	-2.127012E-010	0.6658447	6	4.460638E-009	0.010236	1557.654
	25	40	315.5048	1271770	-2378108	1	2696812	-61.86291	-2.223575E-010	0.665845	6	3.724355E-009	0.0100812	1558.224
	26	42	252.0161	1755931	-2702551	1	3222899	-56.98698	-2.990075E-011	0.6658501	5	2.982806E-009	0.0100486	1557.56
	27	43	200.3205	2050586	-3126285	1	3738792	-56.73842	-2.995213E-011	0.6658503	5	2.586419E-009	0.009983	1558.129
	28	45	158.0056	2387921	-3618898	1	4335734	-56.58128	-3.382136E-011	0.6658508	5	2.250631E-009	0.0099801	1557.56
	29	46	125.558	2828935	-4081530	1	4966061	-55.27392	-2.413648E-011	0.6658459	5	1.960832E-009	0.0098926	1558.129
	30	48	99.734	3232807	-4766043	1	5759010	-55.85096	-2.84036E-011	0.6658482	5	1.685272E-009	0.0098113	1557.56
	31	49	79.44915	3599697	-5671954	1	6717803	-57.5988	-5.692904E-011	0.6658612	5	1.518248E-009	0.0102743	1558.129
	32	51	62.91946	5388715	-5454832	1	7667688	-45.34935	-1.957925E-011	0.6658661	5	1.298008E-009	0.0100008	1557.654
	33	52	49.86702	5224899	-7100461	1	8815674	-53.65238	-4.261639E-011	0.6658621	5	1.131067E-009	0.0100023	1558.129
	34	54	40.0641	5331838	-8242518	1	9.8167E+006	-57.10238	-3.197779E-011	0.6658677	5	1.016562E-009	0.0099998	1557.654
	35	56	31.6723	6026835	-9.590129E+006	1	1.132666E+007	-57.85304	-3.472404E-011	0.665862	5	8.817081E-010	0.0099998	1557.654
	36	57	24.93351	7555420	-1.109018E+007	1	1.341925E+007	-55.73452	-8.052062E-012	0.665863	4	7.171777E-010	0.0099997	1558.083
	37	59	20.03205	8079245	-1.303252E+007	1	1.533365E+007	-58.204	-7.162573E-012	0.665867	4	6.359141E-010	0.0099999	1557.939
	38	61	15.78283	8773957	-1.567933E+007	1	1.796729E+007	-60.76916	-7.395629E-012	0.6658662	4	5.47851E-010	0.010001	1557.939
	39	63	12.46675	9437008	-1.891246E+007	1	2.113618E+007	-63.48155	-5.707995E-012	0.6658633	4	4.68397E-010	0.0099997	1557.464
	40	65	9.9734	1.037263E+007	-2.278616E+007	1	2.503598E+007	-65.52419	-7.668399E-012	0.6658623	4	3.968622E-010	0.0100001	1557.56
	41	68	7.878151	1.139513E+007	-2.769504E+007	1	2.994769E+007	-67.63528	-6.09073E-012	0.6658673	4	3.325552E-010	0.0099995	1558.033
	42	70	6.351626	1.293321E+007	-3.355039E+007	1	3.595687E+007	-68.91904	-8.176293E-012	0.6658617	4	2.773747E-010	0.0099998	1557.56
	43	73	5.013369	1.433627E+007	-4.072371E+007	1	4.317348E+007	-70.60602	-5.46067E-012	0.6658669	4	2.31257E-010	0.0100006	1557.56
	44	76	3.985969	1.65351E+007	-4.966972E+007	1	5.23497E+007	-71.58736	-6.322059E-012	0.6658622	4	1.908245E-010	0.01	1557.654
	45	79	3.175813	1.942263E+007	-6.092305E+007	1	6.394417E+007	-72.31741	-7.858911E-012	0.665861	4	1.562738E-010	0.0099994	1557.939
	46	83	2.516103	2.267692E+007	-7.399885E+007	1	7.739556E+007	-72.96233	-7.006612E-012	0.6658731	4	1.25546E-010	0.0096068	1557.654
	47	87	1.99553	2.682973E+007	-9.014254E+007	1	9.405058E+007	-73.42506	-6.739373E-012	0.6658739	4	1.094711E-010	0.0102216	1557.654
	48	91	1.583615	3.214366E+007	-1.095433E+008	1	1.14162E+008	-73.64655	-7.222019E-012	0.6658639	4	8.882881E-011	0.0100949	1557.654
	49	96	1.258052	6.298571E+007	-1.13815E+008	1	1.30081E+008	-61.03968	-6.080355E-012	0.6658742	4	7.741716E-011	0.0100418	1557.654
	50	104	0.997765	4.668216E+007	-1.626895E+008	1	1.692545E+008	-73.98969	-7.032692E-012	0.6658746	4	5.930501E-011	0.0100197	1557.654

File: 1123 NHP wafer P9e27a.DTA
EXPLAIN
TAG	EISPOT
TITLE	LABEL	Potentiostatic EIS	Test &Identifier
DATE	LABEL	11/23/2025	Date
TIME	LABEL	17:14:43	Time
NOTES	NOTES	1	&Notes...

PSTAT	PSTAT	IFC1010-39067	Potentiostat
VDC	POTEN	0.00000E+000	T	DC &Voltage (V)
FREQINIT	QUANT	1.00000E+005	Initial Fre&q. (Hz)
FREQFINAL	QUANT	1.00000E+000	Final Fre&q. (Hz)
PTSPERDEC	QUANT	1.00000E+001	Points/&decade
VAC	QUANT	1.00000E+001	AC &Voltage (mV rms)
AREA	QUANT	2.00000E-001	&Area (cm^2)
CONDIT	TWOPARAM	F	1.50000E+001	0.00000E+000	Conditionin&g	Time(s)	E(V)
DELAY	TWOPARAM	F	1.00000E+002	0.00000E+000	Init. De&lay	Time(s)	Stab.(mV/s)
SPEED	SELECTOR	1	&Optimize for:
THD	SELECTOR	0	T&HD
DRIFTCOR	SELECTOR	0	&Drift Correction
ZGUESS	QUANT	1.00000E+006	E&stimated Z (ohms)
OCVCURVE	TABLE	39
	Pt	T	Vf	Vm	Ach	Over	Temp
	#	s	V vs. Ref.	V	V	bits	deg C
	0	0.258333	6.10448E-001	6.10448E-001	0.00000E+000	...........	1559.46
	1	0.516667	6.10460E-001	6.11068E-001	0.00000E+000	...........	1559.46
	2	0.775	6.10489E-001	6.09344E-001	0.00000E+000	...........	1559.46
	3	1.03333	6.10456E-001	6.09431E-001	0.00000E+000	...........	1559.46
	4	1.29167	6.10247E-001	6.08904E-001	0.00000E+000	...........	1559.46
	5	1.55	6.09816E-001	6.05931E-001	0.00000E+000	...........	1558.32
	6	1.80833	6.09105E-001	6.05196E-001	0.00000E+000	...........	1558.32
	7	2.06667	6.08115E-001	6.07693E-001	0.00000E+000	...........	1558.32
	8	2.325	6.07289E-001	6.12602E-001	0.00000E+000	...........	1558.23
	9	2.58333	6.07412E-001	6.14078E-001	0.00000E+000	...........	1558.13
	10	2.84167	6.08814E-001	6.15290E-001	0.00000E+000	...........	1558.13
	11	3.1	6.10998E-001	6.17042E-001	0.00000E+000	...........	1558.13
	12	3.35833	6.13243E-001	6.18952E-001	0.00000E+000	...........	1558.32
	13	3.61667	6.15226E-001	6.19966E-001	0.00000E+000	...........	1558.32
	14	3.875	6.16906E-001	6.18558E-001	0.00000E+000	...........	1558.32
	15	4.13333	6.18191E-001	6.20605E-001	0.00000E+000	...........	1558.32
	16	4.39167	6.18833E-001	6.09925E-001	0.00000E+000	...........	1558.32
	17	4.65	6.18268E-001	6.05987E-001	0.00000E+000	...........	1558.32
	18	4.90833	6.15928E-001	6.03822E-001	0.00000E+000	...........	1558.32
	19	5.16667	6.12222E-001	6.04983E-001	0.00000E+000	...........	1558.32
	20	5.425	6.08567E-001	6.05813E-001	0.00000E+000	...........	1558.32
	21	5.68333	6.06127E-001	6.02734E-001	0.00000E+000	...........	1558.32
	22	5.94167	6.04963E-001	6.05771E-001	0.00000E+000	...........	1558.32
	23	6.2	6.04597E-001	6.07251E-001	0.00000E+000	...........	1558.32
	24	6.45833	6.04790E-001	6.06172E-001	0.00000E+000	...........	1558.32
	25	6.71667	6.05230E-001	5.99022E-001	0.00000E+000	...........	1558.32
	26	6.975	6.05088E-001	5.98844E-001	0.00000E+000	...........	1558.32
	27	7.23333	6.03826E-001	6.01002E-001	0.00000E+000	...........	1558.32
	28	7.49167	6.02068E-001	6.01066E-001	0.00000E+000	...........	1558.32
	29	7.75	6.00822E-001	5.98950E-001	0.00000E+000	...........	1558.32
	30	8.00833	6.00286E-001	5.99719E-001	0.00000E+000	...........	1558.32
	31	8.26667	6.00067E-001	6.01131E-001	0.00000E+000	...........	1558.32
	32	8.525	6.00024E-001	6.01883E-001	0.00000E+000	...........	1558.32
	33	8.78333	6.00295E-001	6.02412E-001	0.00000E+000	...........	1558.32
	34	9.04167	6.00883E-001	6.03112E-001	0.00000E+000	...........	1558.32
	35	9.3	6.01604E-001	6.03209E-001	0.00000E+000	...........	1558.32
	36	9.5583	6.02279E-001	6.03646E-001	0.00000E+000	...........	1558.32
	37	9.8167	6.02830E-001	6.04143E-001	0.00000E+000	...........	1558.32
	38	10.075	6.03277E-001	6.04608E-001	0.00000E+000	...........	1558.32
EOC	QUANT	0.6032771	Open Circuit (V)
PSTATMODEL	IQUANT	64	Pstat Model
PSTATSECTION	LABEL	IFC1010-39067	Pstat Section
PSTATSERIALNO	LABEL	39067	Pstat Serial Number
CTRLMODE	IQUANT	1	Control Mode
ELECTROMETER	IQUANT	0	RE=0 or CS=1
IESTAB	IQUANT	0	I/E Stability
CASPEED	IQUANT	3	Control Amp Speed
CONVENTION	IQUANT	1	Current Convention
ICHRANGE	IQUANT	2	Ich Range
ICHRANGEMODE	TOGGLE	F	Ich Auto Range
ICHOFFSETENABLE	TOGGLE	T	Ich Offset Enable
ICHOFFSET	QUANT	0	Ich Offset (V)
ICHFILTER	IQUANT	4	Ich Filter
VCHRANGE	IQUANT	2	Vch Range
VCHRANGEMODE	TOGGLE	F	Vch Auto Range
VCHOFFSETENABLE	TOGGLE	T	Vch Offset Enable
VCHOFFSET	QUANT	0	Vch Offset (V)
VCHFILTER	IQUANT	4	Vch Filter
IERANGELOWERLIMIT	IQUANT	4	I/E Range Lower Limit
IERANGEMODE	TOGGLE	F	I/E AutoRange
IERANGE	IQUANT	6	I/E Range
ACHSELECT	IQUANT	0	Ach Select
ACHRANGE	IQUANT	2	Ach Range
ACHOFFSETENABLE	TOGGLE	F	Ach Offset Enable
ACHOFFSET	QUANT	0	Ach Offset (V)
ACHFILTER	IQUANT	1	Ach Filter
SENSECABLEID	IQUANT	14	Sense Cable ID
PWRCABLEID	IQUANT	14	Power Cable ID
DCCALDATE	LABEL	11/8/2025	DC Calibration Date
ACCALDATE	LABEL	5/30/2024	AC Calibration Date
FRAMEWORKVERSION	LABEL	7.10.3	Framework Version
INSTRUMENTVERSION	LABEL	4.91	Instrument Version
COMMVERSION	LABEL	3.10	Communications Version
CPUPLDVERSION	LABEL	2.50	CPU PLD Version
CTRLPLDVERSION	LABEL	0.00	CTRL PLD Version
PSTATPLDVERSION	LABEL	0.00	PSTAT PLD Version
ZCURVE	TABLE
	Pt	Time	Freq	Zreal	Zimag	Zsig	Zmod	Zphz	Idc	Vdc	IERange	Imod	Vmod	Temp
	#	s	Hz	ohm	ohm	V	ohm	°	A	V	#	A	V	°C
	0	1	100019.5	4106.498	-6799.162	1	7943.042	-58.86924	-3.211193E-008	0.6033303	8	1.25062E-006	0.0099888	1558.033
	1	3	79511.72	4595.679	-8082.864	1	9298.008	-60.37872	-2.739834E-008	0.6033581	8	1.096973E-006	0.0102412	1558.129
	2	5	63105.47	5177.136	-9623.9	1	10928.05	-61.72216	-3.112683E-008	0.6033309	8	9.243379E-007	0.0101302	1558.129
	3	7	50214.84	5884.109	-11454.39	1	12877.33	-62.81047	-2.980203E-008	0.6033294	8	7.76095E-007	0.0100138	1558.129
	4	9	39902.34	6693.922	-13651.85	1	15204.65	-63.87986	-3.016543E-008	0.6033307	8	6.585444E-007	0.0100264	1558.129
	5	11	31699.22	7606.885	-16333.43	1	18017.92	-65.02743	-2.916469E-008	0.6033299	8	5.54402E-007	0.0099981	1558.129
	6	13	25136.72	10366.08	-19300.07	1	21907.72	-61.75972	-1.830358E-009	0.6033508	7	4.527957E-007	0.0102177	1557.654
	7	15	19980.47	11617.73	-23098.37	1	25855.49	-63.29908	-3.976963E-009	0.6033449	7	3.767933E-007	0.0099329	1557.56
	8	17	15878.91	13145.96	-27666.14	1	30630.57	-64.58461	-3.897086E-009	0.6033444	7	3.206457E-007	0.0099478	1557.464
	9	19	12597.66	14905.81	-33254.12	1	36442.01	-65.85619	-3.951407E-009	0.6033435	7	2.713847E-007	0.0099737	1558.033
	10	20	10019.53	17138.71	-39902.98	1	43427.91	-66.75602	-3.849872E-009	0.6033438	7	2.28456E-007	0.0099775	1558.033
	11	22	7928.241	19882.76	-48052.89	1	52003.89	-67.52178	-8.717466E-010	0.6034726	7	1.912747E-007	0.0099844	1557.939
	12	24	6307.871	22963.46	-57638.89	1	62044.84	-68.27755	-9.533939E-010	0.6034706	7	1.603012E-007	0.0099708	1557.654
	13	26	5034.722	26736.88	-69089.66	1	74082.66	-68.84415	-1.988887E-009	0.6034136	7	1.304862E-007	0.0096747	1557.464
	14	28	3993.056	31433.23	-83180.91	1	88921.95	-69.29893	-2.060754E-009	0.6034136	7	1.145321E-007	0.0101883	1557.464
	15	29	3144.055	37342.7	-100673.2	1	107375.9	-69.64867	-2.320258E-009	0.6033543	7	9.384522E-008	0.0100786	1557.939
	16	31	2519.531	54084.76	-119363.8	1	131045.4	-65.62431	-2.984168E-010	0.6033559	6	7.436244E-008	0.0100554	1557.939
	17	33	2000.762	62105.26	-143022	1	155924.2	-66.52779	-2.729196E-010	0.6033581	6	6.276787E-008	0.0099924	1557.939
	18	35	1580.669	72221.92	-172289.2	1	186814.3	-67.25706	-2.505319E-010	0.6033556	6	5.289153E-008	0.0100186	1557.464
	19	37	1253.634	84485.88	-206950.9	1	223532	-67.79269	-2.204726E-010	0.603357	6	4.423316E-008	0.0099821	1557.464
	20	39	1000.702	99176.9	-247306.1	1	266451.4	-68.1478	-1.586548E-010	0.6034155	6	3.731085E-008	0.0100096	1557.464
	21	40	790.0281	118023.9	-297862.3	1	320392.9	-68.38473	-1.523604E-010	0.603415	6	3.097299E-008	0.0099733	1557.939
	22	42	628.811	140941.5	-356594.5	1	383437.3	-68.43394	-2.364516E-010	0.6033565	6	2.59827E-008	0.0100012	1557.749
	23	44	502.2321	168034.8	-425213.8	1	457211.6	-68.4372	-2.271191E-010	0.6033574	6	2.088412E-008	0.0096231	1557.749
	24	45	400.1524	202725.8	-507551	1	546539.8	-68.22726	-1.675295E-010	0.603358	6	1.863234E-008	0.010238	1558.129
	25	47	315.5048	247830.1	-609161.6	1	657645.5	-67.86164	-1.69317E-010	0.6033581	6	1.527492E-008	0.0100828	1558.129
	26	49	252.0161	359402.1	-715874.5	1	801028.2	-63.34124	-2.85565E-011	0.6033629	5	1.197066E-008	0.010023	1558.033
	27	50	200.3205	425147	-847577.3	1	948228.5	-63.36154	4.713097E-011	0.6033626	5	1.023379E-008	0.010018	1558.033
	28	52	158.0056	506441.4	-1007114	1	1127281	-63.30383	-8.122641E-012	0.6033627	5	8.631329E-009	0.0099512	1557.464
	29	53	125.558	618368.6	-1209789	1	1358664	-62.92671	2.823922E-013	0.603358	5	7.19117E-009	0.0099259	1558.033
	30	55	99.734	732396.8	-1385363	1	1567047	-62.13603	-8.104548E-012	0.6033652	5	6.175553E-009	0.0097829	1558.033
	31	57	79.44915	862421.8	-1619836	1	1835113	-61.96859	-4.614842E-011	0.6033735	5	5.562524E-009	0.010283	1558.129
	32	58	62.91946	910223.5	-1910594	1	2116336	-64.52647	-4.585948E-011	0.6033795	5	4.702465E-009	0.01	1558.129
	33	60	49.86702	1170315	-2175748	1	2470530	-61.72461	-1.462708E-011	0.6033763	5	4.036121E-009	0.0100025	1557.654
	34	61	40.0641	1410884	-2491095	1	2862892	-60.47405	-2.499659E-011	0.6033807	5	3.48572E-009	0.0099998	1557.654
	35	63	31.6723	1623302	-2886673	1	3311796	-60.64906	-2.544603E-011	0.6033739	5	3.015642E-009	0.0100002	1558.033
	36	65	24.93351	2136383	-3316189	1	3944774	-57.20921	1.915787E-012	0.6033759	4	2.439515E-009	0.009999	1558.129
	37	67	20.03205	2351847	-3833816	1	4497703	-58.47305	-1.20696E-012	0.6033791	4	2.168221E-009	0.0100011	1557.56
	38	69	15.78283	2575832	-4551518	1	5229840	-60.49325	-1.502336E-012	0.6033788	4	1.88191E-009	0.0099997	1557.56
	39	71	12.46675	2837150	-5449094	1	6143455	-62.4956	-4.296306E-012	0.6033748	4	1.611544E-009	0.01	1557.56
	40	73	9.9734	3107406	-6491928	1	7197299	-64.42157	-1.812148E-012	0.603374	4	1.38046E-009	0.0099998	1557.56
	41	75	7.878151	3467847	-7857802	1	8589005	-66.18691	-1.559677E-012	0.6033793	4	1.159569E-009	0.0099998	1557.464
	42	77	6.351626	3858943	-9352375	1	1.011723E+007	-67.57816	6.051156E-012	0.6033753	4	9.858032E-010	0.0099999	1557.787
	43	80	5.013369	4397495	-1.139491E+007	1	1.2214E+007	-68.89752	-2.243988E-012	0.6033804	4	8.174303E-010	0.0100005	1557.939
	44	83	3.985969	5015690	-1.379198E+007	1	1.467569E+007	-70.01534	-2.230194E-012	0.6033742	4	6.806744E-010	0.0099997	1557.464
	45	86	3.175813	5589241	-1.670995E+007	1	1.761994E+007	-71.50565	-2.601377E-011	0.6033738	5	5.67533E-010	0.01	1557.464
	46	91	2.516103	6683127	-2.021428E+007	1	2.12904E+007	-71.70538	-2.16164E-012	0.6033851	4	4.56379E-010	0.0096066	1557.685
	47	95	1.99553	7743140	-2.456506E+007	1	2.575652E+007	-72.50465	-3.251743E-012	0.603385	4	3.997385E-010	0.0102216	1558.129
	48	99	1.583615	9040541	-2.988135E+007	1	3.121901E+007	-73.16692	-4.454826E-012	0.603376	4	3.248281E-010	0.0100948	1558.129
	49	104	1.258052	1.062592E+007	-3.633645E+007	1	3.785826E+007	-73.69942	-3.815951E-012	0.603385	4	2.660087E-010	0.0100419	1557.654
	50	110	0.997765	1.294534E+007	-4.423011E+007	1	4.608562E+007	-73.68621	-2.693262E-012	0.6033858	4	2.177965E-010	0.0100194	1557.654